list,language,choose_font,error_pid,error_age,error_space,gen_space_continue,ams_point,vm_look_1t,vm_point_1t,vm_look_2t,vm_point_2t,ams_nofeedback,vm1_correct,vm2_correct,vm1_incorrect,vm2_incorrect,ams_general_welcome,ams_confirm_info,ams_text_pid,ams_text_estimated_age,ams_text_age,ams_ams_vm,ams_vm_only,ams_intial_instructions,ams_taskInst,ams_end_ams,ams_text_3,ams_text_5,ams_text_7,ams_text_24,ams_text_8,ams_text_25,ams_text_23,ams_text_2,feedback_correct_blue,feedback_incorrect_neutral,feedback_correct_yellow,sample_file,visual_stimuli,age_group,block,correct,correct_shift,test_trials,numRatio,Num1,Num2,convex_hull,avg_ind_Dot_size,cum_Surf,cum_perim,sideLg,CH,CS1,CS2,CP,RR,LeftLarge,feedback_correct,feedback_incorrect,blank,n1,n2,Num_1,Num_2,ConvHull_1,ConvHull_2,TotSurf_1,TotSurf_2,ADBD_1,ADBD_2,AvDiameter_1,AvDiameter_2,TotContour_1,TotContour_2,ADfC_1,ADfC_2,TS_CH_1,TS_CH_2,isa_1,isa_2,threefeat,threefeat_num,block_displayed,fourfeat,mn_coretasks_language.thisRepN,mn_coretasks_language.thisTrialN,mn_coretasks_language.thisN,mn_coretasks_language.thisIndex,sample_loop.thisRepN,sample_loop.thisTrialN,sample_loop.thisN,sample_loop.thisIndex,sample_trial_loop.thisRepN,sample_trial_loop.thisTrialN,sample_trial_loop.thisN,sample_trial_loop.thisIndex,sample_trial.thisRepN,sample_trial.thisTrialN,sample_trial.thisN,sample_trial.thisIndex,practice_loop.thisRepN,practice_loop.thisTrialN,practice_loop.thisN,practice_loop.thisIndex,practice.thisRepN,practice.thisTrialN,practice.thisN,practice.thisIndex,block1.thisRepN,block1.thisTrialN,block1.thisN,block1.thisIndex,block2.thisRepN,block2.thisTrialN,block2.thisN,block2.thisIndex,block3.thisRepN,block3.thisTrialN,block3.thisN,block3.thisIndex,age_years,age_months,,version,monitor_size,window_size,key_resp_32.keys,key_resp_32.rt,key_resp_35.keys,mouse_6.started,polygon.started,polygon_2.started,mouse_6.x,mouse_6.y,mouse_6.leftButton,mouse_6.midButton,mouse_6.rightButton,mouse_6.time,mouse_6.clicked_name,key_resp_5.keys,key_resp_5.rt,key_resp.started,fixation.started,text_35.started,key_resp.keys,key_resp.rt,image_a.started,response.started,image_b.started,image_a.stopped,choice_right1,response.keys,response.corr,response.rt,image_8.started,key_resp_31.started,text_29.started,key_resp_31.keys,key_resp_31.rt,key_resp_2.keys,key_resp_2.rt,image_5.started,key_resp_30.started,text_27.started,key_resp_30.keys,key_resp_30.rt,key_resp_9.keys,image.started,key_resp_4.keys,key_resp_4.rt,key_resp_6.keys,key_resp_6.rt,key_resp_7.keys,key_resp_7.rt,totaltime_exp,end.started,ParticipantID,DayOfBirth,MonthOfBirth,YearOfBirth,AgeGroup,SiteID,Language,RemoveDOB,date,expName,psychopyVersion,frameRate,
5,dutch,Arial,De ParticipantID box is leeg.,De leeftijd gebaseerd op geboortedatum en de leeftijdsgroep matchen niet met elkaar.,Druk op de spatiebalk en voer de informatie opnieuw in.,Druk a.u.b. op de spatiebalk.,Wijs naar de kant waar meer stippen zijn.,Kijk naar dit plaatje(NL)/prentje(B).,Wijs naar het plaatje(NL)/prentje(B) dat je net gezien hebt.,Kijk naar deze plaatjes(NL)/prentjes(B).,Wijs naar de plaatjes(NL)/prentjes(B)die je net gezien hebt.,"Nu gaan we er nog wat meer doen, maar ik zeg nu niet meer of je het goed of fout hebt.",Dat is juist. Dit is het plaatje(NL)/prentje(B) dat je hebt gezien.,Dat is goed. Dit zijn de plaatjes(NL)/prentjes(B) die je gezien hebt.,"Oei, dit is het plaatje(NL)/prentje(B) dat je hebt gezien.","Uh Oh, dit zijn de plaatjes(NL)/prentjes(B) die je gezien hebt.","Welkom!
Bevestig alsjeblieft de volgende informatie",Druk op de spatiebalk als deze informatie correct is. Of druk Esc als er fouten zijn.,Je participant ID is: ,De leeftijd gebaseerd op de geboortedatum die je ingevoerd hebt is: ,De leeftijdsgroep van het kind die je ingevoerd hebt is: ,"AMS taak +
Visual Memory Taak","alleen Visual
Memory Taak",Kies 'AMS Taak + Visual Memory Taak' als het de eerste keer is dat het kind de taken doet. Kies 'alleen Visual Memory Taak " als dat de enige taak is die dit kind nog mist.,Je ziet straks een aantal blauwe stippen en gele stippen. Jouw taak is om mij te vertellen welke kleur meer stippen heeft. Je kunt wijzen naar de kant waar meer stippen zijn of zeg gewoon "blauw" of "geel". Experimentator: druk op de  “S” toets voor blauw en op de “L” toets voor geel.,"Goed gedaan!
Druk op q" om verder te gaan."",Welkom!,"Ik ga je een aantal plaatjes(NL)/prentjes(B) laten zien. Daana moet jij naar de plaatjes wijzen die je net gezien hebt.
Klaar?",Denk eraan! Wijs naar het plaatje(NL)/prentje(B) dat je net gezien hebt.,Klaar?,Nu gaan we meer plaatjes(NL)/prentjes(B) bekijken. Laten we oefenen!,Denk eraan! Wijs naar de plaatjes(NL)/prentjes(B) die je net gezien hebt.,Dank je wel!,"Denk eraan!
Jouw taak is om mij te vertellen welke kleur meer stippen heeft. Je kunt naar de kant wijzen die meer stippen heeft of je kunt alleen blauw" of "geel" zeggen."","Ja, dat is goed! Er zijn meer blauwe stippen.","Uh oh, dat is niet goed! Kijk, het maakt niet uit hoe ver de stippen uit elkaar liggen of hoe groot ze zijn, er zijn meer stippen aan deze kant.","Ja, dat is goed! Er zijn meer gele stippen.",ams_task_sample_sheet1.xlsx,sample7_rect.png,all,sample,a,s,1,4,5,20,None,equated,None,None,left,0,1500,6000,0,1,1,"Yes, that is right! There are more blue dots.","Uh oh, that is not right! Look, no matter how spread out these dots are or how big they are, this side has more dots",amstask_rectangles2.png,,,,,,,,,,,,,,,,,,,,,,,,,0,0,0,0,0,0,0,0,0,0,0,0,0,0,0,0,,,,,,,,,,,,,,,,,,,,,5,0,mn031,local,"[1024, 768]",[1920 1080],space,1.7644456000998616,None,0.05495310015976429,133.81112780002877,133.81112780002877,[-0.3814814814814815],[-0.14166666666666666],[1],[0],[0],[1.0963463999796659],['polygon'],space,13.339687000028789,148.35612720018253,148.35612720018253,148.35612720018253,space,2.6882196001242846,151.1383439002093,151.35565130016766,153.07122360006906,153.1384714001324,0,s,1,3.594202700071037,155.05396990012378,155.05396990012378,155.17070500017144,space,3.7207712000235915,,,,,,,,,,,,,,,,,,mn031,29,4,2020,5,KULeuven,Dutch,no,2025-05-05_09h31.50.172,manynumbers_ams_visualmemory_v2025.0301B,2022.2.5,60.8088673351991,
5,dutch,Arial,De ParticipantID box is leeg.,De leeftijd gebaseerd op geboortedatum en de leeftijdsgroep matchen niet met elkaar.,Druk op de spatiebalk en voer de informatie opnieuw in.,Druk a.u.b. op de spatiebalk.,Wijs naar de kant waar meer stippen zijn.,Kijk naar dit plaatje(NL)/prentje(B).,Wijs naar het plaatje(NL)/prentje(B) dat je net gezien hebt.,Kijk naar deze plaatjes(NL)/prentjes(B).,Wijs naar de plaatjes(NL)/prentjes(B)die je net gezien hebt.,"Nu gaan we er nog wat meer doen, maar ik zeg nu niet meer of je het goed of fout hebt.",Dat is juist. Dit is het plaatje(NL)/prentje(B) dat je hebt gezien.,Dat is goed. Dit zijn de plaatjes(NL)/prentjes(B) die je gezien hebt.,"Oei, dit is het plaatje(NL)/prentje(B) dat je hebt gezien.","Uh Oh, dit zijn de plaatjes(NL)/prentjes(B) die je gezien hebt.","Welkom!
Bevestig alsjeblieft de volgende informatie",Druk op de spatiebalk als deze informatie correct is. Of druk Esc als er fouten zijn.,Je participant ID is: ,De leeftijd gebaseerd op de geboortedatum die je ingevoerd hebt is: ,De leeftijdsgroep van het kind die je ingevoerd hebt is: ,"AMS taak +
Visual Memory Taak","alleen Visual
Memory Taak",Kies 'AMS Taak + Visual Memory Taak' als het de eerste keer is dat het kind de taken doet. Kies 'alleen Visual Memory Taak " als dat de enige taak is die dit kind nog mist.,Je ziet straks een aantal blauwe stippen en gele stippen. Jouw taak is om mij te vertellen welke kleur meer stippen heeft. Je kunt wijzen naar de kant waar meer stippen zijn of zeg gewoon "blauw" of "geel". Experimentator: druk op de  “S” toets voor blauw en op de “L” toets voor geel.,"Goed gedaan!
Druk op q" om verder te gaan."",Welkom!,"Ik ga je een aantal plaatjes(NL)/prentjes(B) laten zien. Daana moet jij naar de plaatjes wijzen die je net gezien hebt.
Klaar?",Denk eraan! Wijs naar het plaatje(NL)/prentje(B) dat je net gezien hebt.,Klaar?,Nu gaan we meer plaatjes(NL)/prentjes(B) bekijken. Laten we oefenen!,Denk eraan! Wijs naar de plaatjes(NL)/prentjes(B) die je net gezien hebt.,Dank je wel!,"Denk eraan!
Jouw taak is om mij te vertellen welke kleur meer stippen heeft. Je kunt naar de kant wijzen die meer stippen heeft of je kunt alleen blauw" of "geel" zeggen."","Ja, dat is goed! Er zijn meer blauwe stippen.","Uh oh, dat is niet goed! Kijk, het maakt niet uit hoe ver de stippen uit elkaar liggen of hoe groot ze zijn, er zijn meer stippen aan deze kant.","Ja, dat is goed! Er zijn meer gele stippen.",ams_task_sample_sheet2.xlsx,sample8_rect.png,all,sample,l,l,1,3.5,8,28,None,equated,None,None,right,0,1500,5250,0,1,0,"Yes, that is right! There are more yellow dots.","Uh oh, that is not right! Look, no matter how spread out these dots are or how big they are, this side has more dots",amstask_rectangles2.png,,,,,,,,,,,,,,,,,,,,,,,,,0,0,0,0,0,1,1,1,0,0,0,0,0,0,0,0,,,,,,,,,,,,,,,,,,,,,,,,,,,,,,,,,,,,,,,,,,158.83570180018432,158.83570180018432,158.83570180018432,space,2.371181100141257,161.30201040022075,161.53482670011,163.23487510019913,163.30080320010893,1,l,1,2.0105309998616576,163.61742900009267,163.61742900009267,163.76759020006284,space,3.6355850000400096,,,,,,,,,,,,,,,,,,mn031,29,4,2020,5,KULeuven,Dutch,no,2025-05-05_09h31.50.172,manynumbers_ams_visualmemory_v2025.0301B,2022.2.5,60.8088673351991,
5,dutch,Arial,De ParticipantID box is leeg.,De leeftijd gebaseerd op geboortedatum en de leeftijdsgroep matchen niet met elkaar.,Druk op de spatiebalk en voer de informatie opnieuw in.,Druk a.u.b. op de spatiebalk.,Wijs naar de kant waar meer stippen zijn.,Kijk naar dit plaatje(NL)/prentje(B).,Wijs naar het plaatje(NL)/prentje(B) dat je net gezien hebt.,Kijk naar deze plaatjes(NL)/prentjes(B).,Wijs naar de plaatjes(NL)/prentjes(B)die je net gezien hebt.,"Nu gaan we er nog wat meer doen, maar ik zeg nu niet meer of je het goed of fout hebt.",Dat is juist. Dit is het plaatje(NL)/prentje(B) dat je hebt gezien.,Dat is goed. Dit zijn de plaatjes(NL)/prentjes(B) die je gezien hebt.,"Oei, dit is het plaatje(NL)/prentje(B) dat je hebt gezien.","Uh Oh, dit zijn de plaatjes(NL)/prentjes(B) die je gezien hebt.","Welkom!
Bevestig alsjeblieft de volgende informatie",Druk op de spatiebalk als deze informatie correct is. Of druk Esc als er fouten zijn.,Je participant ID is: ,De leeftijd gebaseerd op de geboortedatum die je ingevoerd hebt is: ,De leeftijdsgroep van het kind die je ingevoerd hebt is: ,"AMS taak +
Visual Memory Taak","alleen Visual
Memory Taak",Kies 'AMS Taak + Visual Memory Taak' als het de eerste keer is dat het kind de taken doet. Kies 'alleen Visual Memory Taak " als dat de enige taak is die dit kind nog mist.,Je ziet straks een aantal blauwe stippen en gele stippen. Jouw taak is om mij te vertellen welke kleur meer stippen heeft. Je kunt wijzen naar de kant waar meer stippen zijn of zeg gewoon "blauw" of "geel". Experimentator: druk op de  “S” toets voor blauw en op de “L” toets voor geel.,"Goed gedaan!
Druk op q" om verder te gaan."",Welkom!,"Ik ga je een aantal plaatjes(NL)/prentjes(B) laten zien. Daana moet jij naar de plaatjes wijzen die je net gezien hebt.
Klaar?",Denk eraan! Wijs naar het plaatje(NL)/prentje(B) dat je net gezien hebt.,Klaar?,Nu gaan we meer plaatjes(NL)/prentjes(B) bekijken. Laten we oefenen!,Denk eraan! Wijs naar de plaatjes(NL)/prentjes(B) die je net gezien hebt.,Dank je wel!,"Denk eraan!
Jouw taak is om mij te vertellen welke kleur meer stippen heeft. Je kunt naar de kant wijzen die meer stippen heeft of je kunt alleen blauw" of "geel" zeggen."","Ja, dat is goed! Er zijn meer blauwe stippen.","Uh oh, dat is niet goed! Kijk, het maakt niet uit hoe ver de stippen uit elkaar liggen of hoe groot ze zijn, er zijn meer stippen aan deze kant.","Ja, dat is goed! Er zijn meer gele stippen.",,Practice5_rect.png,all,practice,a,s,5,3.5,,,0,0,equated,0,left,0,5721,5721,0,1,1,"Yes, that is right! There are more blue dots.","Uh oh, that is not right! Look, no matter how spread out these dots are or how big they are, this side has more dots.",amstask_rectangles2.png,12,42,,,,,,,,,,,,,,,,,,,,,,,0,0,0,0,,,,,,,,,,,,,0,0,0,0,0,0,0,4,,,,,,,,,,,,,,,,,,,,,,,,,,,,,,,,,,172.78172700013965,172.78172700013965,172.78172700013965,space,1.9997292999178171,174.88032039999962,175.0972799002193,176.81364430021495,176.87961930013262,0,s,1,3.5672484999522567,,,,,,space,5.427320200018585,178.76231370004825,178.76231370004825,178.89577100006863,space,2.3005065000616014,,,,,,,,,,,mn031,29,4,2020,5,KULeuven,Dutch,no,2025-05-05_09h31.50.172,manynumbers_ams_visualmemory_v2025.0301B,2022.2.5,60.8088673351991,
5,dutch,Arial,De ParticipantID box is leeg.,De leeftijd gebaseerd op geboortedatum en de leeftijdsgroep matchen niet met elkaar.,Druk op de spatiebalk en voer de informatie opnieuw in.,Druk a.u.b. op de spatiebalk.,Wijs naar de kant waar meer stippen zijn.,Kijk naar dit plaatje(NL)/prentje(B).,Wijs naar het plaatje(NL)/prentje(B) dat je net gezien hebt.,Kijk naar deze plaatjes(NL)/prentjes(B).,Wijs naar de plaatjes(NL)/prentjes(B)die je net gezien hebt.,"Nu gaan we er nog wat meer doen, maar ik zeg nu niet meer of je het goed of fout hebt.",Dat is juist. Dit is het plaatje(NL)/prentje(B) dat je hebt gezien.,Dat is goed. Dit zijn de plaatjes(NL)/prentjes(B) die je gezien hebt.,"Oei, dit is het plaatje(NL)/prentje(B) dat je hebt gezien.","Uh Oh, dit zijn de plaatjes(NL)/prentjes(B) die je gezien hebt.","Welkom!
Bevestig alsjeblieft de volgende informatie",Druk op de spatiebalk als deze informatie correct is. Of druk Esc als er fouten zijn.,Je participant ID is: ,De leeftijd gebaseerd op de geboortedatum die je ingevoerd hebt is: ,De leeftijdsgroep van het kind die je ingevoerd hebt is: ,"AMS taak +
Visual Memory Taak","alleen Visual
Memory Taak",Kies 'AMS Taak + Visual Memory Taak' als het de eerste keer is dat het kind de taken doet. Kies 'alleen Visual Memory Taak " als dat de enige taak is die dit kind nog mist.,Je ziet straks een aantal blauwe stippen en gele stippen. Jouw taak is om mij te vertellen welke kleur meer stippen heeft. Je kunt wijzen naar de kant waar meer stippen zijn of zeg gewoon "blauw" of "geel". Experimentator: druk op de  “S” toets voor blauw en op de “L” toets voor geel.,"Goed gedaan!
Druk op q" om verder te gaan."",Welkom!,"Ik ga je een aantal plaatjes(NL)/prentjes(B) laten zien. Daana moet jij naar de plaatjes wijzen die je net gezien hebt.
Klaar?",Denk eraan! Wijs naar het plaatje(NL)/prentje(B) dat je net gezien hebt.,Klaar?,Nu gaan we meer plaatjes(NL)/prentjes(B) bekijken. Laten we oefenen!,Denk eraan! Wijs naar de plaatjes(NL)/prentjes(B) die je net gezien hebt.,Dank je wel!,"Denk eraan!
Jouw taak is om mij te vertellen welke kleur meer stippen heeft. Je kunt naar de kant wijzen die meer stippen heeft of je kunt alleen blauw" of "geel" zeggen."","Ja, dat is goed! Er zijn meer blauwe stippen.","Uh oh, dat is niet goed! Kijk, het maakt niet uit hoe ver de stippen uit elkaar liggen of hoe groot ze zijn, er zijn meer stippen aan deze kant.","Ja, dat is goed! Er zijn meer gele stippen.",,Practice4_rect.png,all,practice,l,l,4,3.5,,,equated,equated,0,0,right,53856,3000,10500,0,1,0,"Yes, that is right! There are more yellow dots.","Uh oh, that is not right! Look, no matter how spread out these dots are or how big they are, this side has more dots.",amstask_rectangles2.png,10,35,,,,,,,,,,,,,,,,,,,,,,,0,0,0,0,,,,,,,,,,,,,0,0,0,0,0,1,1,3,,,,,,,,,,,,,,,,,,,,,,,,,,,,,,,,,,181.0947368000634,181.0947368000634,181.0947368000634,space,1.8513431998435408,183.02783220005222,183.2611703001894,,,1,l,1,1.5095494000706822,,,,,,,,184.86040210002102,184.86040210002102,184.99373170011677,space,6.873648300068453,,,,,,,,,,,mn031,29,4,2020,5,KULeuven,Dutch,no,2025-05-05_09h31.50.172,manynumbers_ams_visualmemory_v2025.0301B,2022.2.5,60.8088673351991,
5,dutch,Arial,De ParticipantID box is leeg.,De leeftijd gebaseerd op geboortedatum en de leeftijdsgroep matchen niet met elkaar.,Druk op de spatiebalk en voer de informatie opnieuw in.,Druk a.u.b. op de spatiebalk.,Wijs naar de kant waar meer stippen zijn.,Kijk naar dit plaatje(NL)/prentje(B).,Wijs naar het plaatje(NL)/prentje(B) dat je net gezien hebt.,Kijk naar deze plaatjes(NL)/prentjes(B).,Wijs naar de plaatjes(NL)/prentjes(B)die je net gezien hebt.,"Nu gaan we er nog wat meer doen, maar ik zeg nu niet meer of je het goed of fout hebt.",Dat is juist. Dit is het plaatje(NL)/prentje(B) dat je hebt gezien.,Dat is goed. Dit zijn de plaatjes(NL)/prentjes(B) die je gezien hebt.,"Oei, dit is het plaatje(NL)/prentje(B) dat je hebt gezien.","Uh Oh, dit zijn de plaatjes(NL)/prentjes(B) die je gezien hebt.","Welkom!
Bevestig alsjeblieft de volgende informatie",Druk op de spatiebalk als deze informatie correct is. Of druk Esc als er fouten zijn.,Je participant ID is: ,De leeftijd gebaseerd op de geboortedatum die je ingevoerd hebt is: ,De leeftijdsgroep van het kind die je ingevoerd hebt is: ,"AMS taak +
Visual Memory Taak","alleen Visual
Memory Taak",Kies 'AMS Taak + Visual Memory Taak' als het de eerste keer is dat het kind de taken doet. Kies 'alleen Visual Memory Taak " als dat de enige taak is die dit kind nog mist.,Je ziet straks een aantal blauwe stippen en gele stippen. Jouw taak is om mij te vertellen welke kleur meer stippen heeft. Je kunt wijzen naar de kant waar meer stippen zijn of zeg gewoon "blauw" of "geel". Experimentator: druk op de  “S” toets voor blauw en op de “L” toets voor geel.,"Goed gedaan!
Druk op q" om verder te gaan."",Welkom!,"Ik ga je een aantal plaatjes(NL)/prentjes(B) laten zien. Daana moet jij naar de plaatjes wijzen die je net gezien hebt.
Klaar?",Denk eraan! Wijs naar het plaatje(NL)/prentje(B) dat je net gezien hebt.,Klaar?,Nu gaan we meer plaatjes(NL)/prentjes(B) bekijken. Laten we oefenen!,Denk eraan! Wijs naar de plaatjes(NL)/prentjes(B) die je net gezien hebt.,Dank je wel!,"Denk eraan!
Jouw taak is om mij te vertellen welke kleur meer stippen heeft. Je kunt naar de kant wijzen die meer stippen heeft of je kunt alleen blauw" of "geel" zeggen."","Ja, dat is goed! Er zijn meer blauwe stippen.","Uh oh, dat is niet goed! Kijk, het maakt niet uit hoe ver de stippen uit elkaar liggen of hoe groot ze zijn, er zijn meer stippen aan deze kant.","Ja, dat is goed! Er zijn meer gele stippen.",,Practice2_rect.png,all,practice,l,l,2,4,,,0,0,equated,0,right,0,7399,7399,0,1,0,"Yes, that is right! There are more yellow dots.","Uh oh, that is not right! Look, no matter how spread out these dots are or how big they are, this side has more dots.",amstask_rectangles2.png,11,44,,,,,,,,,,,,,,,,,,,,,,,0,0,0,0,,,,,,,,,,,,,0,0,0,0,0,2,2,1,,,,,,,,,,,,,,,,,,,,,,,,,,,,,,,,,,191.75787430000491,191.75787430000491,191.75787430000491,space,0.5580758999567479,192.40774190006778,192.6249846999999,194.3409755001776,194.40755410003476,1,l,1,4.526657599955797,,,,,,,,197.23954870016314,197.23954870016314,197.37240610015579,space,2.430281000211835,,,,,,,,,,,mn031,29,4,2020,5,KULeuven,Dutch,no,2025-05-05_09h31.50.172,manynumbers_ams_visualmemory_v2025.0301B,2022.2.5,60.8088673351991,
5,dutch,Arial,De ParticipantID box is leeg.,De leeftijd gebaseerd op geboortedatum en de leeftijdsgroep matchen niet met elkaar.,Druk op de spatiebalk en voer de informatie opnieuw in.,Druk a.u.b. op de spatiebalk.,Wijs naar de kant waar meer stippen zijn.,Kijk naar dit plaatje(NL)/prentje(B).,Wijs naar het plaatje(NL)/prentje(B) dat je net gezien hebt.,Kijk naar deze plaatjes(NL)/prentjes(B).,Wijs naar de plaatjes(NL)/prentjes(B)die je net gezien hebt.,"Nu gaan we er nog wat meer doen, maar ik zeg nu niet meer of je het goed of fout hebt.",Dat is juist. Dit is het plaatje(NL)/prentje(B) dat je hebt gezien.,Dat is goed. Dit zijn de plaatjes(NL)/prentjes(B) die je gezien hebt.,"Oei, dit is het plaatje(NL)/prentje(B) dat je hebt gezien.","Uh Oh, dit zijn de plaatjes(NL)/prentjes(B) die je gezien hebt.","Welkom!
Bevestig alsjeblieft de volgende informatie",Druk op de spatiebalk als deze informatie correct is. Of druk Esc als er fouten zijn.,Je participant ID is: ,De leeftijd gebaseerd op de geboortedatum die je ingevoerd hebt is: ,De leeftijdsgroep van het kind die je ingevoerd hebt is: ,"AMS taak +
Visual Memory Taak","alleen Visual
Memory Taak",Kies 'AMS Taak + Visual Memory Taak' als het de eerste keer is dat het kind de taken doet. Kies 'alleen Visual Memory Taak " als dat de enige taak is die dit kind nog mist.,Je ziet straks een aantal blauwe stippen en gele stippen. Jouw taak is om mij te vertellen welke kleur meer stippen heeft. Je kunt wijzen naar de kant waar meer stippen zijn of zeg gewoon "blauw" of "geel". Experimentator: druk op de  “S” toets voor blauw en op de “L” toets voor geel.,"Goed gedaan!
Druk op q" om verder te gaan."",Welkom!,"Ik ga je een aantal plaatjes(NL)/prentjes(B) laten zien. Daana moet jij naar de plaatjes wijzen die je net gezien hebt.
Klaar?",Denk eraan! Wijs naar het plaatje(NL)/prentje(B) dat je net gezien hebt.,Klaar?,Nu gaan we meer plaatjes(NL)/prentjes(B) bekijken. Laten we oefenen!,Denk eraan! Wijs naar de plaatjes(NL)/prentjes(B) die je net gezien hebt.,Dank je wel!,"Denk eraan!
Jouw taak is om mij te vertellen welke kleur meer stippen heeft. Je kunt naar de kant wijzen die meer stippen heeft of je kunt alleen blauw" of "geel" zeggen."","Ja, dat is goed! Er zijn meer blauwe stippen.","Uh oh, dat is niet goed! Kijk, het maakt niet uit hoe ver de stippen uit elkaar liggen of hoe groot ze zijn, er zijn meer stippen aan deze kant.","Ja, dat is goed! Er zijn meer gele stippen.",,Practice3_rect.png,all,practice,a,s,3,4,,,equated,0,0,equated,left,86502,0,0,1695,2,1,"Yes, that is right! There are more blue dots.","Uh oh, that is not right! Look, no matter how spread out these dots are or how big they are, this side has more dots.",amstask_rectangles2.png,12,48,,,,,,,,,,,,,,,,,,,,,,,0,0,0,0,,,,,,,,,,,,,0,0,0,0,0,3,3,2,,,,,,,,,,,,,,,,,,,,,,,,,,,,,,,,,,199.688384400215,199.688384400215,199.688384400215,space,0.5502762000542134,200.32143730018288,200.55533780017868,202.27073370013386,202.3215981000103,0,s,1,3.3783723001834005,,,,,,,,204.02367800008506,204.02367800008506,204.15370330004953,space,0.9192983000539243,,,,,,,,,,,mn031,29,4,2020,5,KULeuven,Dutch,no,2025-05-05_09h31.50.172,manynumbers_ams_visualmemory_v2025.0301B,2022.2.5,60.8088673351991,
5,dutch,Arial,De ParticipantID box is leeg.,De leeftijd gebaseerd op geboortedatum en de leeftijdsgroep matchen niet met elkaar.,Druk op de spatiebalk en voer de informatie opnieuw in.,Druk a.u.b. op de spatiebalk.,Wijs naar de kant waar meer stippen zijn.,Kijk naar dit plaatje(NL)/prentje(B).,Wijs naar het plaatje(NL)/prentje(B) dat je net gezien hebt.,Kijk naar deze plaatjes(NL)/prentjes(B).,Wijs naar de plaatjes(NL)/prentjes(B)die je net gezien hebt.,"Nu gaan we er nog wat meer doen, maar ik zeg nu niet meer of je het goed of fout hebt.",Dat is juist. Dit is het plaatje(NL)/prentje(B) dat je hebt gezien.,Dat is goed. Dit zijn de plaatjes(NL)/prentjes(B) die je gezien hebt.,"Oei, dit is het plaatje(NL)/prentje(B) dat je hebt gezien.","Uh Oh, dit zijn de plaatjes(NL)/prentjes(B) die je gezien hebt.","Welkom!
Bevestig alsjeblieft de volgende informatie",Druk op de spatiebalk als deze informatie correct is. Of druk Esc als er fouten zijn.,Je participant ID is: ,De leeftijd gebaseerd op de geboortedatum die je ingevoerd hebt is: ,De leeftijdsgroep van het kind die je ingevoerd hebt is: ,"AMS taak +
Visual Memory Taak","alleen Visual
Memory Taak",Kies 'AMS Taak + Visual Memory Taak' als het de eerste keer is dat het kind de taken doet. Kies 'alleen Visual Memory Taak " als dat de enige taak is die dit kind nog mist.,Je ziet straks een aantal blauwe stippen en gele stippen. Jouw taak is om mij te vertellen welke kleur meer stippen heeft. Je kunt wijzen naar de kant waar meer stippen zijn of zeg gewoon "blauw" of "geel". Experimentator: druk op de  “S” toets voor blauw en op de “L” toets voor geel.,"Goed gedaan!
Druk op q" om verder te gaan."",Welkom!,"Ik ga je een aantal plaatjes(NL)/prentjes(B) laten zien. Daana moet jij naar de plaatjes wijzen die je net gezien hebt.
Klaar?",Denk eraan! Wijs naar het plaatje(NL)/prentje(B) dat je net gezien hebt.,Klaar?,Nu gaan we meer plaatjes(NL)/prentjes(B) bekijken. Laten we oefenen!,Denk eraan! Wijs naar de plaatjes(NL)/prentjes(B) die je net gezien hebt.,Dank je wel!,"Denk eraan!
Jouw taak is om mij te vertellen welke kleur meer stippen heeft. Je kunt naar de kant wijzen die meer stippen heeft of je kunt alleen blauw" of "geel" zeggen."","Ja, dat is goed! Er zijn meer blauwe stippen.","Uh oh, dat is niet goed! Kijk, het maakt niet uit hoe ver de stippen uit elkaar liggen of hoe groot ze zijn, er zijn meer stippen aan deze kant.","Ja, dat is goed! Er zijn meer gele stippen.",,Practice1_rect.png,all,practice,a,s,1,4,,,equated,equated,0,0,left,135847,3000,12000,0,1,1,"Yes, that is right! There are more blue dots.","Uh oh, that is not right! Look, no matter how spread out these dots are or how big they are, this side has more dots.",amstask_rectangles2.png,10,40,,,,,,,,,,,,,,,,,,,,,,,0,0,0,0,,,,,,,,,,,,,0,0,0,0,0,4,4,0,,,,,,,,,,,,,,,,,,,,,,,,,,,,,,,,,,204.97019770019688,204.97019770019688,204.97019770019688,space,1.1066992999985814,206.1527601000853,206.402888600016,,,0,s,1,1.6068965999875218,,,,,,,,208.0854395001661,208.0854395001661,208.23549990006723,space,0.768730599898845,,,,,,,,,,,mn031,29,4,2020,5,KULeuven,Dutch,no,2025-05-05_09h31.50.172,manynumbers_ams_visualmemory_v2025.0301B,2022.2.5,60.8088673351991,
5,dutch,Arial,De ParticipantID box is leeg.,De leeftijd gebaseerd op geboortedatum en de leeftijdsgroep matchen niet met elkaar.,Druk op de spatiebalk en voer de informatie opnieuw in.,Druk a.u.b. op de spatiebalk.,Wijs naar de kant waar meer stippen zijn.,Kijk naar dit plaatje(NL)/prentje(B).,Wijs naar het plaatje(NL)/prentje(B) dat je net gezien hebt.,Kijk naar deze plaatjes(NL)/prentjes(B).,Wijs naar de plaatjes(NL)/prentjes(B)die je net gezien hebt.,"Nu gaan we er nog wat meer doen, maar ik zeg nu niet meer of je het goed of fout hebt.",Dat is juist. Dit is het plaatje(NL)/prentje(B) dat je hebt gezien.,Dat is goed. Dit zijn de plaatjes(NL)/prentjes(B) die je gezien hebt.,"Oei, dit is het plaatje(NL)/prentje(B) dat je hebt gezien.","Uh Oh, dit zijn de plaatjes(NL)/prentjes(B) die je gezien hebt.","Welkom!
Bevestig alsjeblieft de volgende informatie",Druk op de spatiebalk als deze informatie correct is. Of druk Esc als er fouten zijn.,Je participant ID is: ,De leeftijd gebaseerd op de geboortedatum die je ingevoerd hebt is: ,De leeftijdsgroep van het kind die je ingevoerd hebt is: ,"AMS taak +
Visual Memory Taak","alleen Visual
Memory Taak",Kies 'AMS Taak + Visual Memory Taak' als het de eerste keer is dat het kind de taken doet. Kies 'alleen Visual Memory Taak " als dat de enige taak is die dit kind nog mist.,Je ziet straks een aantal blauwe stippen en gele stippen. Jouw taak is om mij te vertellen welke kleur meer stippen heeft. Je kunt wijzen naar de kant waar meer stippen zijn of zeg gewoon "blauw" of "geel". Experimentator: druk op de  “S” toets voor blauw en op de “L” toets voor geel.,"Goed gedaan!
Druk op q" om verder te gaan."",Welkom!,"Ik ga je een aantal plaatjes(NL)/prentjes(B) laten zien. Daana moet jij naar de plaatjes wijzen die je net gezien hebt.
Klaar?",Denk eraan! Wijs naar het plaatje(NL)/prentje(B) dat je net gezien hebt.,Klaar?,Nu gaan we meer plaatjes(NL)/prentjes(B) bekijken. Laten we oefenen!,Denk eraan! Wijs naar de plaatjes(NL)/prentjes(B) die je net gezien hebt.,Dank je wel!,"Denk eraan!
Jouw taak is om mij te vertellen welke kleur meer stippen heeft. Je kunt naar de kant wijzen die meer stippen heeft of je kunt alleen blauw" of "geel" zeggen."","Ja, dat is goed! Er zijn meer blauwe stippen.","Uh oh, dat is niet goed! Kijk, het maakt niet uit hoe ver de stippen uit elkaar liggen of hoe groot ze zijn, er zijn meer stippen aan deze kant.","Ja, dat is goed! Er zijn meer gele stippen.",,Practice6_rect.png,all,practice,l,l,6,3.5,,,equated,0,0,equated,right,91673,0,0,1827,2,0,"Yes, that is right! There are more yellow dots.","Uh oh, that is not right! Look, no matter how spread out these dots are or how big they are, this side has more dots.",amstask_rectangles2.png,14,49,,,,,,,,,,,,,,,,,,,,,,,0,0,0,0,,,,,,,,,,,,,0,0,0,0,0,5,5,5,,,,,,,,,,,,,,,,,,,,,,,,,,,,,,,,,,208.88502280018292,208.88502280018292,208.88502280018292,space,0.4384504999034107,209.41916610021144,209.63557150005363,211.35176810016856,211.4342595001217,1,l,1,5.411133200163022,,,,,,,,215.13395650009625,215.13395650009625,215.24948950018734,space,1.471186300041154,,,,,,,,,,,mn031,29,4,2020,5,KULeuven,Dutch,no,2025-05-05_09h31.50.172,manynumbers_ams_visualmemory_v2025.0301B,2022.2.5,60.8088673351991,
5,dutch,Arial,De ParticipantID box is leeg.,De leeftijd gebaseerd op geboortedatum en de leeftijdsgroep matchen niet met elkaar.,Druk op de spatiebalk en voer de informatie opnieuw in.,Druk a.u.b. op de spatiebalk.,Wijs naar de kant waar meer stippen zijn.,Kijk naar dit plaatje(NL)/prentje(B).,Wijs naar het plaatje(NL)/prentje(B) dat je net gezien hebt.,Kijk naar deze plaatjes(NL)/prentjes(B).,Wijs naar de plaatjes(NL)/prentjes(B)die je net gezien hebt.,"Nu gaan we er nog wat meer doen, maar ik zeg nu niet meer of je het goed of fout hebt.",Dat is juist. Dit is het plaatje(NL)/prentje(B) dat je hebt gezien.,Dat is goed. Dit zijn de plaatjes(NL)/prentjes(B) die je gezien hebt.,"Oei, dit is het plaatje(NL)/prentje(B) dat je hebt gezien.","Uh Oh, dit zijn de plaatjes(NL)/prentjes(B) die je gezien hebt.","Welkom!
Bevestig alsjeblieft de volgende informatie",Druk op de spatiebalk als deze informatie correct is. Of druk Esc als er fouten zijn.,Je participant ID is: ,De leeftijd gebaseerd op de geboortedatum die je ingevoerd hebt is: ,De leeftijdsgroep van het kind die je ingevoerd hebt is: ,"AMS taak +
Visual Memory Taak","alleen Visual
Memory Taak",Kies 'AMS Taak + Visual Memory Taak' als het de eerste keer is dat het kind de taken doet. Kies 'alleen Visual Memory Taak " als dat de enige taak is die dit kind nog mist.,Je ziet straks een aantal blauwe stippen en gele stippen. Jouw taak is om mij te vertellen welke kleur meer stippen heeft. Je kunt wijzen naar de kant waar meer stippen zijn of zeg gewoon "blauw" of "geel". Experimentator: druk op de  “S” toets voor blauw en op de “L” toets voor geel.,"Goed gedaan!
Druk op q" om verder te gaan."",Welkom!,"Ik ga je een aantal plaatjes(NL)/prentjes(B) laten zien. Daana moet jij naar de plaatjes wijzen die je net gezien hebt.
Klaar?",Denk eraan! Wijs naar het plaatje(NL)/prentje(B) dat je net gezien hebt.,Klaar?,Nu gaan we meer plaatjes(NL)/prentjes(B) bekijken. Laten we oefenen!,Denk eraan! Wijs naar de plaatjes(NL)/prentjes(B) die je net gezien hebt.,Dank je wel!,"Denk eraan!
Jouw taak is om mij te vertellen welke kleur meer stippen heeft. Je kunt naar de kant wijzen die meer stippen heeft of je kunt alleen blauw" of "geel" zeggen."","Ja, dat is goed! Er zijn meer blauwe stippen.","Uh oh, dat is niet goed! Kijk, het maakt niet uit hoe ver de stippen uit elkaar liggen of hoe groot ze zijn, er zijn meer stippen aan deze kant.","Ja, dat is goed! Er zijn meer gele stippen.",,Age5_test7_rect.png,5,,a,s,7,1.17,,,0,equated,0,0,left,0,8100,9600,0,1,1,,,,27,32,32,27,209860,209420,9600,8100,63,67,19,19,1941,1639,181,198,0.045744,0.038678,283.528736986479,283.528736986479,equated_0_0,3,b2,30.0,0,0,0,0,,,,,,,,,,,,,,,,,,,,,0,0,0,15,,,,,,,,,,,,,,,,,,,,,,,,,,,,,,499.3524006002117,499.3524006002117,499.3524006002117,space,2.1226858999580145,502.8011916000396,502.8011916000396,503.50091320020147,504.8007885001134,1,l,0,3.012974699959159,,,,,,,,,,,,,None,216.6990975001827,space,282.5831770999357,,,,,,,mn031,29,4,2020,5,KULeuven,Dutch,no,2025-05-05_09h31.50.172,manynumbers_ams_visualmemory_v2025.0301B,2022.2.5,60.8088673351991,
5,dutch,Arial,De ParticipantID box is leeg.,De leeftijd gebaseerd op geboortedatum en de leeftijdsgroep matchen niet met elkaar.,Druk op de spatiebalk en voer de informatie opnieuw in.,Druk a.u.b. op de spatiebalk.,Wijs naar de kant waar meer stippen zijn.,Kijk naar dit plaatje(NL)/prentje(B).,Wijs naar het plaatje(NL)/prentje(B) dat je net gezien hebt.,Kijk naar deze plaatjes(NL)/prentjes(B).,Wijs naar de plaatjes(NL)/prentjes(B)die je net gezien hebt.,"Nu gaan we er nog wat meer doen, maar ik zeg nu niet meer of je het goed of fout hebt.",Dat is juist. Dit is het plaatje(NL)/prentje(B) dat je hebt gezien.,Dat is goed. Dit zijn de plaatjes(NL)/prentjes(B) die je gezien hebt.,"Oei, dit is het plaatje(NL)/prentje(B) dat je hebt gezien.","Uh Oh, dit zijn de plaatjes(NL)/prentjes(B) die je gezien hebt.","Welkom!
Bevestig alsjeblieft de volgende informatie",Druk op de spatiebalk als deze informatie correct is. Of druk Esc als er fouten zijn.,Je participant ID is: ,De leeftijd gebaseerd op de geboortedatum die je ingevoerd hebt is: ,De leeftijdsgroep van het kind die je ingevoerd hebt is: ,"AMS taak +
Visual Memory Taak","alleen Visual
Memory Taak",Kies 'AMS Taak + Visual Memory Taak' als het de eerste keer is dat het kind de taken doet. Kies 'alleen Visual Memory Taak " als dat de enige taak is die dit kind nog mist.,Je ziet straks een aantal blauwe stippen en gele stippen. Jouw taak is om mij te vertellen welke kleur meer stippen heeft. Je kunt wijzen naar de kant waar meer stippen zijn of zeg gewoon "blauw" of "geel". Experimentator: druk op de  “S” toets voor blauw en op de “L” toets voor geel.,"Goed gedaan!
Druk op q" om verder te gaan."",Welkom!,"Ik ga je een aantal plaatjes(NL)/prentjes(B) laten zien. Daana moet jij naar de plaatjes wijzen die je net gezien hebt.
Klaar?",Denk eraan! Wijs naar het plaatje(NL)/prentje(B) dat je net gezien hebt.,Klaar?,Nu gaan we meer plaatjes(NL)/prentjes(B) bekijken. Laten we oefenen!,Denk eraan! Wijs naar de plaatjes(NL)/prentjes(B) die je net gezien hebt.,Dank je wel!,"Denk eraan!
Jouw taak is om mij te vertellen welke kleur meer stippen heeft. Je kunt naar de kant wijzen die meer stippen heeft of je kunt alleen blauw" of "geel" zeggen."","Ja, dat is goed! Er zijn meer blauwe stippen.","Uh oh, dat is niet goed! Kijk, het maakt niet uit hoe ver de stippen uit elkaar liggen of hoe groot ze zijn, er zijn meer stippen aan deze kant.","Ja, dat is goed! Er zijn meer gele stippen.",,Age5_test36_rect.png,5,,a,s,36,1.25,,,0,0,0,equated,left,0,0,0,1860,2,1,,,,32,40,40,32,198860,216130,7085,8899,50,63,15,19,1860,1860,172,191,0.035627,0.041174,176.714586764426,283.528736986479,0_0_equated,1,b2,10.0,0,0,0,0,,,,,,,,,,,,,,,,,,,,,0,1,1,9,,,,,,,,,,,,,,,,,,,,,,,,,,,,,,505.83360110013746,505.83360110013746,505.83360110013746,space,0.6303572999313474,507.4829031000845,507.4829031000845,508.4827438001521,509.48210510006174,0,s,1,3.0329278998542577,,,,,,,,,,,,,,,,,,,,,,,mn031,29,4,2020,5,KULeuven,Dutch,no,2025-05-05_09h31.50.172,manynumbers_ams_visualmemory_v2025.0301B,2022.2.5,60.8088673351991,
5,dutch,Arial,De ParticipantID box is leeg.,De leeftijd gebaseerd op geboortedatum en de leeftijdsgroep matchen niet met elkaar.,Druk op de spatiebalk en voer de informatie opnieuw in.,Druk a.u.b. op de spatiebalk.,Wijs naar de kant waar meer stippen zijn.,Kijk naar dit plaatje(NL)/prentje(B).,Wijs naar het plaatje(NL)/prentje(B) dat je net gezien hebt.,Kijk naar deze plaatjes(NL)/prentjes(B).,Wijs naar de plaatjes(NL)/prentjes(B)die je net gezien hebt.,"Nu gaan we er nog wat meer doen, maar ik zeg nu niet meer of je het goed of fout hebt.",Dat is juist. Dit is het plaatje(NL)/prentje(B) dat je hebt gezien.,Dat is goed. Dit zijn de plaatjes(NL)/prentjes(B) die je gezien hebt.,"Oei, dit is het plaatje(NL)/prentje(B) dat je hebt gezien.","Uh Oh, dit zijn de plaatjes(NL)/prentjes(B) die je gezien hebt.","Welkom!
Bevestig alsjeblieft de volgende informatie",Druk op de spatiebalk als deze informatie correct is. Of druk Esc als er fouten zijn.,Je participant ID is: ,De leeftijd gebaseerd op de geboortedatum die je ingevoerd hebt is: ,De leeftijdsgroep van het kind die je ingevoerd hebt is: ,"AMS taak +
Visual Memory Taak","alleen Visual
Memory Taak",Kies 'AMS Taak + Visual Memory Taak' als het de eerste keer is dat het kind de taken doet. Kies 'alleen Visual Memory Taak " als dat de enige taak is die dit kind nog mist.,Je ziet straks een aantal blauwe stippen en gele stippen. Jouw taak is om mij te vertellen welke kleur meer stippen heeft. Je kunt wijzen naar de kant waar meer stippen zijn of zeg gewoon "blauw" of "geel". Experimentator: druk op de  “S” toets voor blauw en op de “L” toets voor geel.,"Goed gedaan!
Druk op q" om verder te gaan."",Welkom!,"Ik ga je een aantal plaatjes(NL)/prentjes(B) laten zien. Daana moet jij naar de plaatjes wijzen die je net gezien hebt.
Klaar?",Denk eraan! Wijs naar het plaatje(NL)/prentje(B) dat je net gezien hebt.,Klaar?,Nu gaan we meer plaatjes(NL)/prentjes(B) bekijken. Laten we oefenen!,Denk eraan! Wijs naar de plaatjes(NL)/prentjes(B) die je net gezien hebt.,Dank je wel!,"Denk eraan!
Jouw taak is om mij te vertellen welke kleur meer stippen heeft. Je kunt naar de kant wijzen die meer stippen heeft of je kunt alleen blauw" of "geel" zeggen."","Ja, dat is goed! Er zijn meer blauwe stippen.","Uh oh, dat is niet goed! Kijk, het maakt niet uit hoe ver de stippen uit elkaar liggen of hoe groot ze zijn, er zijn meer stippen aan deze kant.","Ja, dat is goed! Er zijn meer gele stippen.",,Age5_test42_rect.png,5,,a,s,42,2,,,equated,0,0,equated,left,52587,0,0,1532,2,1,,,,13,26,26,13,52576,52595,7400,14766,29,23,19,38,1532,1532,83,77,0.14075,0.28075,283.528736986479,1134.11494794592,0_0_equated,1,b2,1_equated,0,0,0,0,,,,,,,,,,,,,,,,,,,,,0,2,2,12,,,,,,,,,,,,,,,,,,,,,,,,,,,,,,510.54837730014697,510.54837730014697,510.54837730014697,space,0.4316908000037074,511.8991881001275,511.8991881001275,512.9810223001987,513.9139087002259,1,l,0,5.447978199925274,,,,,,,,,,,,,,,,,,,,,,,mn031,29,4,2020,5,KULeuven,Dutch,no,2025-05-05_09h31.50.172,manynumbers_ams_visualmemory_v2025.0301B,2022.2.5,60.8088673351991,
5,dutch,Arial,De ParticipantID box is leeg.,De leeftijd gebaseerd op geboortedatum en de leeftijdsgroep matchen niet met elkaar.,Druk op de spatiebalk en voer de informatie opnieuw in.,Druk a.u.b. op de spatiebalk.,Wijs naar de kant waar meer stippen zijn.,Kijk naar dit plaatje(NL)/prentje(B).,Wijs naar het plaatje(NL)/prentje(B) dat je net gezien hebt.,Kijk naar deze plaatjes(NL)/prentjes(B).,Wijs naar de plaatjes(NL)/prentjes(B)die je net gezien hebt.,"Nu gaan we er nog wat meer doen, maar ik zeg nu niet meer of je het goed of fout hebt.",Dat is juist. Dit is het plaatje(NL)/prentje(B) dat je hebt gezien.,Dat is goed. Dit zijn de plaatjes(NL)/prentjes(B) die je gezien hebt.,"Oei, dit is het plaatje(NL)/prentje(B) dat je hebt gezien.","Uh Oh, dit zijn de plaatjes(NL)/prentjes(B) die je gezien hebt.","Welkom!
Bevestig alsjeblieft de volgende informatie",Druk op de spatiebalk als deze informatie correct is. Of druk Esc als er fouten zijn.,Je participant ID is: ,De leeftijd gebaseerd op de geboortedatum die je ingevoerd hebt is: ,De leeftijdsgroep van het kind die je ingevoerd hebt is: ,"AMS taak +
Visual Memory Taak","alleen Visual
Memory Taak",Kies 'AMS Taak + Visual Memory Taak' als het de eerste keer is dat het kind de taken doet. Kies 'alleen Visual Memory Taak " als dat de enige taak is die dit kind nog mist.,Je ziet straks een aantal blauwe stippen en gele stippen. Jouw taak is om mij te vertellen welke kleur meer stippen heeft. Je kunt wijzen naar de kant waar meer stippen zijn of zeg gewoon "blauw" of "geel". Experimentator: druk op de  “S” toets voor blauw en op de “L” toets voor geel.,"Goed gedaan!
Druk op q" om verder te gaan."",Welkom!,"Ik ga je een aantal plaatjes(NL)/prentjes(B) laten zien. Daana moet jij naar de plaatjes wijzen die je net gezien hebt.
Klaar?",Denk eraan! Wijs naar het plaatje(NL)/prentje(B) dat je net gezien hebt.,Klaar?,Nu gaan we meer plaatjes(NL)/prentjes(B) bekijken. Laten we oefenen!,Denk eraan! Wijs naar de plaatjes(NL)/prentjes(B) die je net gezien hebt.,Dank je wel!,"Denk eraan!
Jouw taak is om mij te vertellen welke kleur meer stippen heeft. Je kunt naar de kant wijzen die meer stippen heeft of je kunt alleen blauw" of "geel" zeggen."","Ja, dat is goed! Er zijn meer blauwe stippen.","Uh oh, dat is niet goed! Kijk, het maakt niet uit hoe ver de stippen uit elkaar liggen of hoe groot ze zijn, er zijn meer stippen aan deze kant.","Ja, dat is goed! Er zijn meer gele stippen.",,Age5_test15_rect.png,5,,a,s,15,1.5,,,0,equated,0,0,left,0,6600,9900,0,1,1,,,,22,33,33,22,190330,204220,9900,6600,48,60,19,19,2007,1331,158,209,0.052015,0.032318,283.528736986479,283.528736986479,equated_0_0,3,b2,30.0,0,0,0,0,,,,,,,,,,,,,,,,,,,,,0,3,3,10,,,,,,,,,,,,,,,,,,,,,,,,,,,,,,517.3796143000945,517.3796143000945,517.3796143000945,space,0.563651000149548,518.8457284001634,518.8457284001634,520.0118950000033,520.8451225000899,0,s,1,3.444700699998066,,,,,,,,,,,,,,,,,,,,,,,mn031,29,4,2020,5,KULeuven,Dutch,no,2025-05-05_09h31.50.172,manynumbers_ams_visualmemory_v2025.0301B,2022.2.5,60.8088673351991,
5,dutch,Arial,De ParticipantID box is leeg.,De leeftijd gebaseerd op geboortedatum en de leeftijdsgroep matchen niet met elkaar.,Druk op de spatiebalk en voer de informatie opnieuw in.,Druk a.u.b. op de spatiebalk.,Wijs naar de kant waar meer stippen zijn.,Kijk naar dit plaatje(NL)/prentje(B).,Wijs naar het plaatje(NL)/prentje(B) dat je net gezien hebt.,Kijk naar deze plaatjes(NL)/prentjes(B).,Wijs naar de plaatjes(NL)/prentjes(B)die je net gezien hebt.,"Nu gaan we er nog wat meer doen, maar ik zeg nu niet meer of je het goed of fout hebt.",Dat is juist. Dit is het plaatje(NL)/prentje(B) dat je hebt gezien.,Dat is goed. Dit zijn de plaatjes(NL)/prentjes(B) die je gezien hebt.,"Oei, dit is het plaatje(NL)/prentje(B) dat je hebt gezien.","Uh Oh, dit zijn de plaatjes(NL)/prentjes(B) die je gezien hebt.","Welkom!
Bevestig alsjeblieft de volgende informatie",Druk op de spatiebalk als deze informatie correct is. Of druk Esc als er fouten zijn.,Je participant ID is: ,De leeftijd gebaseerd op de geboortedatum die je ingevoerd hebt is: ,De leeftijdsgroep van het kind die je ingevoerd hebt is: ,"AMS taak +
Visual Memory Taak","alleen Visual
Memory Taak",Kies 'AMS Taak + Visual Memory Taak' als het de eerste keer is dat het kind de taken doet. Kies 'alleen Visual Memory Taak " als dat de enige taak is die dit kind nog mist.,Je ziet straks een aantal blauwe stippen en gele stippen. Jouw taak is om mij te vertellen welke kleur meer stippen heeft. Je kunt wijzen naar de kant waar meer stippen zijn of zeg gewoon "blauw" of "geel". Experimentator: druk op de  “S” toets voor blauw en op de “L” toets voor geel.,"Goed gedaan!
Druk op q" om verder te gaan."",Welkom!,"Ik ga je een aantal plaatjes(NL)/prentjes(B) laten zien. Daana moet jij naar de plaatjes wijzen die je net gezien hebt.
Klaar?",Denk eraan! Wijs naar het plaatje(NL)/prentje(B) dat je net gezien hebt.,Klaar?,Nu gaan we meer plaatjes(NL)/prentjes(B) bekijken. Laten we oefenen!,Denk eraan! Wijs naar de plaatjes(NL)/prentjes(B) die je net gezien hebt.,Dank je wel!,"Denk eraan!
Jouw taak is om mij te vertellen welke kleur meer stippen heeft. Je kunt naar de kant wijzen die meer stippen heeft of je kunt alleen blauw" of "geel" zeggen."","Ja, dat is goed! Er zijn meer blauwe stippen.","Uh oh, dat is niet goed! Kijk, het maakt niet uit hoe ver de stippen uit elkaar liggen of hoe groot ze zijn, er zijn meer stippen aan deze kant.","Ja, dat is goed! Er zijn meer gele stippen.",,Age5_test34_rect.png,5,,a,s,34,1.25,,,equated,0,0,equated,left,54637,0,0,1872,2,1,,,,16,20,20,16,54638,54642,14301,17853,20,31,30,37,1872,1872,73,77,0.26174,0.32673,706.858347057703,1075.21008569111,0_0_equated,1,b2,1_equated,0,0,0,0,,,,,,,,,,,,,,,,,,,,,0,4,4,13,,,,,,,,,,,,,,,,,,,,,,,,,,,,,,522.3110164001118,522.3110164001118,522.3110164001118,space,0.4541901999618858,523.5273616001941,523.5273616001941,524.7939002001658,525.526661900105,0,s,1,6.189476399915293,,,,,,,,,,,,,,,,,,,,,,,mn031,29,4,2020,5,KULeuven,Dutch,no,2025-05-05_09h31.50.172,manynumbers_ams_visualmemory_v2025.0301B,2022.2.5,60.8088673351991,
5,dutch,Arial,De ParticipantID box is leeg.,De leeftijd gebaseerd op geboortedatum en de leeftijdsgroep matchen niet met elkaar.,Druk op de spatiebalk en voer de informatie opnieuw in.,Druk a.u.b. op de spatiebalk.,Wijs naar de kant waar meer stippen zijn.,Kijk naar dit plaatje(NL)/prentje(B).,Wijs naar het plaatje(NL)/prentje(B) dat je net gezien hebt.,Kijk naar deze plaatjes(NL)/prentjes(B).,Wijs naar de plaatjes(NL)/prentjes(B)die je net gezien hebt.,"Nu gaan we er nog wat meer doen, maar ik zeg nu niet meer of je het goed of fout hebt.",Dat is juist. Dit is het plaatje(NL)/prentje(B) dat je hebt gezien.,Dat is goed. Dit zijn de plaatjes(NL)/prentjes(B) die je gezien hebt.,"Oei, dit is het plaatje(NL)/prentje(B) dat je hebt gezien.","Uh Oh, dit zijn de plaatjes(NL)/prentjes(B) die je gezien hebt.","Welkom!
Bevestig alsjeblieft de volgende informatie",Druk op de spatiebalk als deze informatie correct is. Of druk Esc als er fouten zijn.,Je participant ID is: ,De leeftijd gebaseerd op de geboortedatum die je ingevoerd hebt is: ,De leeftijdsgroep van het kind die je ingevoerd hebt is: ,"AMS taak +
Visual Memory Taak","alleen Visual
Memory Taak",Kies 'AMS Taak + Visual Memory Taak' als het de eerste keer is dat het kind de taken doet. Kies 'alleen Visual Memory Taak " als dat de enige taak is die dit kind nog mist.,Je ziet straks een aantal blauwe stippen en gele stippen. Jouw taak is om mij te vertellen welke kleur meer stippen heeft. Je kunt wijzen naar de kant waar meer stippen zijn of zeg gewoon "blauw" of "geel". Experimentator: druk op de  “S” toets voor blauw en op de “L” toets voor geel.,"Goed gedaan!
Druk op q" om verder te gaan."",Welkom!,"Ik ga je een aantal plaatjes(NL)/prentjes(B) laten zien. Daana moet jij naar de plaatjes wijzen die je net gezien hebt.
Klaar?",Denk eraan! Wijs naar het plaatje(NL)/prentje(B) dat je net gezien hebt.,Klaar?,Nu gaan we meer plaatjes(NL)/prentjes(B) bekijken. Laten we oefenen!,Denk eraan! Wijs naar de plaatjes(NL)/prentjes(B) die je net gezien hebt.,Dank je wel!,"Denk eraan!
Jouw taak is om mij te vertellen welke kleur meer stippen heeft. Je kunt naar de kant wijzen die meer stippen heeft of je kunt alleen blauw" of "geel" zeggen."","Ja, dat is goed! Er zijn meer blauwe stippen.","Uh oh, dat is niet goed! Kijk, het maakt niet uit hoe ver de stippen uit elkaar liggen of hoe groot ze zijn, er zijn meer stippen aan deze kant.","Ja, dat is goed! Er zijn meer gele stippen.",,Age5_test31_rect.png,5,,l,l,31,1.5,,,equated,0,equated,0,right,158733,3336,3336,0,1,0,,,,22,33,22,33,158770,158710,3336,3336,69,47,14,11,948,1157,172,173,0.021011,0.02102,153.9380400259,95.0331777710912,0_equated_0,2,b2,2_equated,0,0,0,0,,,,,,,,,,,,,,,,,,,,,0,5,5,6,,,,,,,,,,,,,,,,,,,,,,,,,,,,,,529.7587246000767,529.7587246000767,529.7587246000767,space,2.2581281000748277,532.874284000136,532.874284000136,534.0410548001528,534.8736816002056,1,l,1,6.288418100215495,,,,,,,,,,,,,,,,,,,,,,,mn031,29,4,2020,5,KULeuven,Dutch,no,2025-05-05_09h31.50.172,manynumbers_ams_visualmemory_v2025.0301B,2022.2.5,60.8088673351991,
5,dutch,Arial,De ParticipantID box is leeg.,De leeftijd gebaseerd op geboortedatum en de leeftijdsgroep matchen niet met elkaar.,Druk op de spatiebalk en voer de informatie opnieuw in.,Druk a.u.b. op de spatiebalk.,Wijs naar de kant waar meer stippen zijn.,Kijk naar dit plaatje(NL)/prentje(B).,Wijs naar het plaatje(NL)/prentje(B) dat je net gezien hebt.,Kijk naar deze plaatjes(NL)/prentjes(B).,Wijs naar de plaatjes(NL)/prentjes(B)die je net gezien hebt.,"Nu gaan we er nog wat meer doen, maar ik zeg nu niet meer of je het goed of fout hebt.",Dat is juist. Dit is het plaatje(NL)/prentje(B) dat je hebt gezien.,Dat is goed. Dit zijn de plaatjes(NL)/prentjes(B) die je gezien hebt.,"Oei, dit is het plaatje(NL)/prentje(B) dat je hebt gezien.","Uh Oh, dit zijn de plaatjes(NL)/prentjes(B) die je gezien hebt.","Welkom!
Bevestig alsjeblieft de volgende informatie",Druk op de spatiebalk als deze informatie correct is. Of druk Esc als er fouten zijn.,Je participant ID is: ,De leeftijd gebaseerd op de geboortedatum die je ingevoerd hebt is: ,De leeftijdsgroep van het kind die je ingevoerd hebt is: ,"AMS taak +
Visual Memory Taak","alleen Visual
Memory Taak",Kies 'AMS Taak + Visual Memory Taak' als het de eerste keer is dat het kind de taken doet. Kies 'alleen Visual Memory Taak " als dat de enige taak is die dit kind nog mist.,Je ziet straks een aantal blauwe stippen en gele stippen. Jouw taak is om mij te vertellen welke kleur meer stippen heeft. Je kunt wijzen naar de kant waar meer stippen zijn of zeg gewoon "blauw" of "geel". Experimentator: druk op de  “S” toets voor blauw en op de “L” toets voor geel.,"Goed gedaan!
Druk op q" om verder te gaan."",Welkom!,"Ik ga je een aantal plaatjes(NL)/prentjes(B) laten zien. Daana moet jij naar de plaatjes wijzen die je net gezien hebt.
Klaar?",Denk eraan! Wijs naar het plaatje(NL)/prentje(B) dat je net gezien hebt.,Klaar?,Nu gaan we meer plaatjes(NL)/prentjes(B) bekijken. Laten we oefenen!,Denk eraan! Wijs naar de plaatjes(NL)/prentjes(B) die je net gezien hebt.,Dank je wel!,"Denk eraan!
Jouw taak is om mij te vertellen welke kleur meer stippen heeft. Je kunt naar de kant wijzen die meer stippen heeft of je kunt alleen blauw" of "geel" zeggen."","Ja, dat is goed! Er zijn meer blauwe stippen.","Uh oh, dat is niet goed! Kijk, het maakt niet uit hoe ver de stippen uit elkaar liggen of hoe groot ze zijn, er zijn meer stippen aan deze kant.","Ja, dat is goed! Er zijn meer gele stippen.",,Age5_test47_rect.png,5,,l,l,47,1.5,,,0,0,0,equated,right,0,0,0,1763,2,0,,,,22,33,22,33,204920,197460,11475,7695,67,58,26,17,1763,1763,191,178,0.055998,0.03897,530.929158456675,226.980069221863,0_0_equated,1,b2,10.0,0,0,0,0,,,,,,,,,,,,,,,,,,,,,0,6,6,7,,,,,,,,,,,,,,,,,,,,,,,,,,,,,,539.1885812000837,539.1885812000837,539.1885812000837,space,0.6320495000109076,540.7384414002299,540.7384414002299,541.8385812002234,542.7374636000022,0,s,0,3.496900700032711,,,,,,,,,,,,,,,,,,,,,,,mn031,29,4,2020,5,KULeuven,Dutch,no,2025-05-05_09h31.50.172,manynumbers_ams_visualmemory_v2025.0301B,2022.2.5,60.8088673351991,
5,dutch,Arial,De ParticipantID box is leeg.,De leeftijd gebaseerd op geboortedatum en de leeftijdsgroep matchen niet met elkaar.,Druk op de spatiebalk en voer de informatie opnieuw in.,Druk a.u.b. op de spatiebalk.,Wijs naar de kant waar meer stippen zijn.,Kijk naar dit plaatje(NL)/prentje(B).,Wijs naar het plaatje(NL)/prentje(B) dat je net gezien hebt.,Kijk naar deze plaatjes(NL)/prentjes(B).,Wijs naar de plaatjes(NL)/prentjes(B)die je net gezien hebt.,"Nu gaan we er nog wat meer doen, maar ik zeg nu niet meer of je het goed of fout hebt.",Dat is juist. Dit is het plaatje(NL)/prentje(B) dat je hebt gezien.,Dat is goed. Dit zijn de plaatjes(NL)/prentjes(B) die je gezien hebt.,"Oei, dit is het plaatje(NL)/prentje(B) dat je hebt gezien.","Uh Oh, dit zijn de plaatjes(NL)/prentjes(B) die je gezien hebt.","Welkom!
Bevestig alsjeblieft de volgende informatie",Druk op de spatiebalk als deze informatie correct is. Of druk Esc als er fouten zijn.,Je participant ID is: ,De leeftijd gebaseerd op de geboortedatum die je ingevoerd hebt is: ,De leeftijdsgroep van het kind die je ingevoerd hebt is: ,"AMS taak +
Visual Memory Taak","alleen Visual
Memory Taak",Kies 'AMS Taak + Visual Memory Taak' als het de eerste keer is dat het kind de taken doet. Kies 'alleen Visual Memory Taak " als dat de enige taak is die dit kind nog mist.,Je ziet straks een aantal blauwe stippen en gele stippen. Jouw taak is om mij te vertellen welke kleur meer stippen heeft. Je kunt wijzen naar de kant waar meer stippen zijn of zeg gewoon "blauw" of "geel". Experimentator: druk op de  “S” toets voor blauw en op de “L” toets voor geel.,"Goed gedaan!
Druk op q" om verder te gaan."",Welkom!,"Ik ga je een aantal plaatjes(NL)/prentjes(B) laten zien. Daana moet jij naar de plaatjes wijzen die je net gezien hebt.
Klaar?",Denk eraan! Wijs naar het plaatje(NL)/prentje(B) dat je net gezien hebt.,Klaar?,Nu gaan we meer plaatjes(NL)/prentjes(B) bekijken. Laten we oefenen!,Denk eraan! Wijs naar de plaatjes(NL)/prentjes(B) die je net gezien hebt.,Dank je wel!,"Denk eraan!
Jouw taak is om mij te vertellen welke kleur meer stippen heeft. Je kunt naar de kant wijzen die meer stippen heeft of je kunt alleen blauw" of "geel" zeggen."","Ja, dat is goed! Er zijn meer blauwe stippen.","Uh oh, dat is niet goed! Kijk, het maakt niet uit hoe ver de stippen uit elkaar liggen of hoe groot ze zijn, er zijn meer stippen aan deze kant.","Ja, dat is goed! Er zijn meer gele stippen.",,Age5_test21_rect.png,5,,l,l,21,1.17,,,0,0,equated,0,right,0,8116,8116,0,1,0,,,,12,14,12,14,181340,195900,8116,8116,110,80,29,27,1092,1181,192,218,0.044757,0.041428,660.519855417254,572.55526111674,0_equated_0,2,b2,20.0,0,0,0,0,,,,,,,,,,,,,,,,,,,,,0,7,7,0,,,,,,,,,,,,,,,,,,,,,,,,,,,,,,544.2534547001123,544.2534547001123,544.2534547001123,space,0.49838340003043413,545.6698188001756,545.6698188001756,546.7700344000477,547.6698873001151,1,l,1,5.266687199939042,,,,,,,,,,,,,,,,,,,,,,,mn031,29,4,2020,5,KULeuven,Dutch,no,2025-05-05_09h31.50.172,manynumbers_ams_visualmemory_v2025.0301B,2022.2.5,60.8088673351991,
5,dutch,Arial,De ParticipantID box is leeg.,De leeftijd gebaseerd op geboortedatum en de leeftijdsgroep matchen niet met elkaar.,Druk op de spatiebalk en voer de informatie opnieuw in.,Druk a.u.b. op de spatiebalk.,Wijs naar de kant waar meer stippen zijn.,Kijk naar dit plaatje(NL)/prentje(B).,Wijs naar het plaatje(NL)/prentje(B) dat je net gezien hebt.,Kijk naar deze plaatjes(NL)/prentjes(B).,Wijs naar de plaatjes(NL)/prentjes(B)die je net gezien hebt.,"Nu gaan we er nog wat meer doen, maar ik zeg nu niet meer of je het goed of fout hebt.",Dat is juist. Dit is het plaatje(NL)/prentje(B) dat je hebt gezien.,Dat is goed. Dit zijn de plaatjes(NL)/prentjes(B) die je gezien hebt.,"Oei, dit is het plaatje(NL)/prentje(B) dat je hebt gezien.","Uh Oh, dit zijn de plaatjes(NL)/prentjes(B) die je gezien hebt.","Welkom!
Bevestig alsjeblieft de volgende informatie",Druk op de spatiebalk als deze informatie correct is. Of druk Esc als er fouten zijn.,Je participant ID is: ,De leeftijd gebaseerd op de geboortedatum die je ingevoerd hebt is: ,De leeftijdsgroep van het kind die je ingevoerd hebt is: ,"AMS taak +
Visual Memory Taak","alleen Visual
Memory Taak",Kies 'AMS Taak + Visual Memory Taak' als het de eerste keer is dat het kind de taken doet. Kies 'alleen Visual Memory Taak " als dat de enige taak is die dit kind nog mist.,Je ziet straks een aantal blauwe stippen en gele stippen. Jouw taak is om mij te vertellen welke kleur meer stippen heeft. Je kunt wijzen naar de kant waar meer stippen zijn of zeg gewoon "blauw" of "geel". Experimentator: druk op de  “S” toets voor blauw en op de “L” toets voor geel.,"Goed gedaan!
Druk op q" om verder te gaan."",Welkom!,"Ik ga je een aantal plaatjes(NL)/prentjes(B) laten zien. Daana moet jij naar de plaatjes wijzen die je net gezien hebt.
Klaar?",Denk eraan! Wijs naar het plaatje(NL)/prentje(B) dat je net gezien hebt.,Klaar?,Nu gaan we meer plaatjes(NL)/prentjes(B) bekijken. Laten we oefenen!,Denk eraan! Wijs naar de plaatjes(NL)/prentjes(B) die je net gezien hebt.,Dank je wel!,"Denk eraan!
Jouw taak is om mij te vertellen welke kleur meer stippen heeft. Je kunt naar de kant wijzen die meer stippen heeft of je kunt alleen blauw" of "geel" zeggen."","Ja, dat is goed! Er zijn meer blauwe stippen.","Uh oh, dat is niet goed! Kijk, het maakt niet uit hoe ver de stippen uit elkaar liggen of hoe groot ze zijn, er zijn meer stippen aan deze kant.","Ja, dat is goed! Er zijn meer gele stippen.",,Age5_test38_rect.png,5,,a,s,38,1.17,,,equated,0,0,equated,left,44868,0,0,1925,2,1,,,,19,22,22,19,44884,44860,13801,16030,20,19,28,32,1925,1925,69,68,0.30748,0.35733,615.752160103599,804.247719318987,0_0_equated,1,b2,1_equated,0,0,0,0,,,,,,,,,,,,,,,,,,,,,0,8,8,14,,,,,,,,,,,,,,,,,,,,,,,,,,,,,,550.9686097002123,550.9686097002123,550.9686097002123,space,7.815562300151214,559.6316000001971,559.6316000001971,560.8151654000394,561.631210600026,0,s,1,12.11470209993422,,,,,,,,,,,,,,,,,,,,,,,mn031,29,4,2020,5,KULeuven,Dutch,no,2025-05-05_09h31.50.172,manynumbers_ams_visualmemory_v2025.0301B,2022.2.5,60.8088673351991,
5,dutch,Arial,De ParticipantID box is leeg.,De leeftijd gebaseerd op geboortedatum en de leeftijdsgroep matchen niet met elkaar.,Druk op de spatiebalk en voer de informatie opnieuw in.,Druk a.u.b. op de spatiebalk.,Wijs naar de kant waar meer stippen zijn.,Kijk naar dit plaatje(NL)/prentje(B).,Wijs naar het plaatje(NL)/prentje(B) dat je net gezien hebt.,Kijk naar deze plaatjes(NL)/prentjes(B).,Wijs naar de plaatjes(NL)/prentjes(B)die je net gezien hebt.,"Nu gaan we er nog wat meer doen, maar ik zeg nu niet meer of je het goed of fout hebt.",Dat is juist. Dit is het plaatje(NL)/prentje(B) dat je hebt gezien.,Dat is goed. Dit zijn de plaatjes(NL)/prentjes(B) die je gezien hebt.,"Oei, dit is het plaatje(NL)/prentje(B) dat je hebt gezien.","Uh Oh, dit zijn de plaatjes(NL)/prentjes(B) die je gezien hebt.","Welkom!
Bevestig alsjeblieft de volgende informatie",Druk op de spatiebalk als deze informatie correct is. Of druk Esc als er fouten zijn.,Je participant ID is: ,De leeftijd gebaseerd op de geboortedatum die je ingevoerd hebt is: ,De leeftijdsgroep van het kind die je ingevoerd hebt is: ,"AMS taak +
Visual Memory Taak","alleen Visual
Memory Taak",Kies 'AMS Taak + Visual Memory Taak' als het de eerste keer is dat het kind de taken doet. Kies 'alleen Visual Memory Taak " als dat de enige taak is die dit kind nog mist.,Je ziet straks een aantal blauwe stippen en gele stippen. Jouw taak is om mij te vertellen welke kleur meer stippen heeft. Je kunt wijzen naar de kant waar meer stippen zijn of zeg gewoon "blauw" of "geel". Experimentator: druk op de  “S” toets voor blauw en op de “L” toets voor geel.,"Goed gedaan!
Druk op q" om verder te gaan."",Welkom!,"Ik ga je een aantal plaatjes(NL)/prentjes(B) laten zien. Daana moet jij naar de plaatjes wijzen die je net gezien hebt.
Klaar?",Denk eraan! Wijs naar het plaatje(NL)/prentje(B) dat je net gezien hebt.,Klaar?,Nu gaan we meer plaatjes(NL)/prentjes(B) bekijken. Laten we oefenen!,Denk eraan! Wijs naar de plaatjes(NL)/prentjes(B) die je net gezien hebt.,Dank je wel!,"Denk eraan!
Jouw taak is om mij te vertellen welke kleur meer stippen heeft. Je kunt naar de kant wijzen die meer stippen heeft of je kunt alleen blauw" of "geel" zeggen."","Ja, dat is goed! Er zijn meer blauwe stippen.","Uh oh, dat is niet goed! Kijk, het maakt niet uit hoe ver de stippen uit elkaar liggen of hoe groot ze zijn, er zijn meer stippen aan deze kant.","Ja, dat is goed! Er zijn meer gele stippen.",,Age5_test44_rect.png,5,,a,s,44,2,,,0,0,0,equated,left,0,0,0,1913,2,1,,,,20,40,40,20,191410,213680,7484,15025,51,64,15,30,1913,1913,178,172,0.039099,0.070315,176.714586764426,706.858347057703,0_0_equated,1,b2,10.0,0,0,0,0,,,,,,,,,,,,,,,,,,,,,0,9,9,8,,,,,,,,,,,,,,,,,,,,,,,,,,,,,,571.7772262000944,571.7772262000944,571.7772262000944,space,0.6373590999282897,573.310209200019,573.310209200019,574.4438673001714,575.309724900173,1,l,0,3.0476802999619395,,,,,,,,,,,,,,,,,,,,,,,mn031,29,4,2020,5,KULeuven,Dutch,no,2025-05-05_09h31.50.172,manynumbers_ams_visualmemory_v2025.0301B,2022.2.5,60.8088673351991,
5,dutch,Arial,De ParticipantID box is leeg.,De leeftijd gebaseerd op geboortedatum en de leeftijdsgroep matchen niet met elkaar.,Druk op de spatiebalk en voer de informatie opnieuw in.,Druk a.u.b. op de spatiebalk.,Wijs naar de kant waar meer stippen zijn.,Kijk naar dit plaatje(NL)/prentje(B).,Wijs naar het plaatje(NL)/prentje(B) dat je net gezien hebt.,Kijk naar deze plaatjes(NL)/prentjes(B).,Wijs naar de plaatjes(NL)/prentjes(B)die je net gezien hebt.,"Nu gaan we er nog wat meer doen, maar ik zeg nu niet meer of je het goed of fout hebt.",Dat is juist. Dit is het plaatje(NL)/prentje(B) dat je hebt gezien.,Dat is goed. Dit zijn de plaatjes(NL)/prentjes(B) die je gezien hebt.,"Oei, dit is het plaatje(NL)/prentje(B) dat je hebt gezien.","Uh Oh, dit zijn de plaatjes(NL)/prentjes(B) die je gezien hebt.","Welkom!
Bevestig alsjeblieft de volgende informatie",Druk op de spatiebalk als deze informatie correct is. Of druk Esc als er fouten zijn.,Je participant ID is: ,De leeftijd gebaseerd op de geboortedatum die je ingevoerd hebt is: ,De leeftijdsgroep van het kind die je ingevoerd hebt is: ,"AMS taak +
Visual Memory Taak","alleen Visual
Memory Taak",Kies 'AMS Taak + Visual Memory Taak' als het de eerste keer is dat het kind de taken doet. Kies 'alleen Visual Memory Taak " als dat de enige taak is die dit kind nog mist.,Je ziet straks een aantal blauwe stippen en gele stippen. Jouw taak is om mij te vertellen welke kleur meer stippen heeft. Je kunt wijzen naar de kant waar meer stippen zijn of zeg gewoon "blauw" of "geel". Experimentator: druk op de  “S” toets voor blauw en op de “L” toets voor geel.,"Goed gedaan!
Druk op q" om verder te gaan."",Welkom!,"Ik ga je een aantal plaatjes(NL)/prentjes(B) laten zien. Daana moet jij naar de plaatjes wijzen die je net gezien hebt.
Klaar?",Denk eraan! Wijs naar het plaatje(NL)/prentje(B) dat je net gezien hebt.,Klaar?,Nu gaan we meer plaatjes(NL)/prentjes(B) bekijken. Laten we oefenen!,Denk eraan! Wijs naar de plaatjes(NL)/prentjes(B) die je net gezien hebt.,Dank je wel!,"Denk eraan!
Jouw taak is om mij te vertellen welke kleur meer stippen heeft. Je kunt naar de kant wijzen die meer stippen heeft of je kunt alleen blauw" of "geel" zeggen."","Ja, dat is goed! Er zijn meer blauwe stippen.","Uh oh, dat is niet goed! Kijk, het maakt niet uit hoe ver de stippen uit elkaar liggen of hoe groot ze zijn, er zijn meer stippen aan deze kant.","Ja, dat is goed! Er zijn meer gele stippen.",,Age5_test13_rect.png,5,,a,s,13,1.5,,,equated,equated,0,0,left,133247,3000,4500,0,1,1,,,,10,15,15,10,133200,133250,4500,3000,72,123,19,19,910,607,162,174,0.033785,0.022514,283.528736986479,283.528736986479,equated_0_0,3,b2,3_equated,0,0,0,0,,,,,,,,,,,,,,,,,,,,,0,10,10,11,,,,,,,,,,,,,,,,,,,,,,,,,,,,,,576.3759030001238,576.3759030001238,576.3759030001238,space,0.3466863001231104,577.5922071000095,577.5922071000095,578.7416967002209,579.5914941001683,0,s,1,5.954495199956,,,,,,,,,,,,,,,,,,,,,,,mn031,29,4,2020,5,KULeuven,Dutch,no,2025-05-05_09h31.50.172,manynumbers_ams_visualmemory_v2025.0301B,2022.2.5,60.8088673351991,
5,dutch,Arial,De ParticipantID box is leeg.,De leeftijd gebaseerd op geboortedatum en de leeftijdsgroep matchen niet met elkaar.,Druk op de spatiebalk en voer de informatie opnieuw in.,Druk a.u.b. op de spatiebalk.,Wijs naar de kant waar meer stippen zijn.,Kijk naar dit plaatje(NL)/prentje(B).,Wijs naar het plaatje(NL)/prentje(B) dat je net gezien hebt.,Kijk naar deze plaatjes(NL)/prentjes(B).,Wijs naar de plaatjes(NL)/prentjes(B)die je net gezien hebt.,"Nu gaan we er nog wat meer doen, maar ik zeg nu niet meer of je het goed of fout hebt.",Dat is juist. Dit is het plaatje(NL)/prentje(B) dat je hebt gezien.,Dat is goed. Dit zijn de plaatjes(NL)/prentjes(B) die je gezien hebt.,"Oei, dit is het plaatje(NL)/prentje(B) dat je hebt gezien.","Uh Oh, dit zijn de plaatjes(NL)/prentjes(B) die je gezien hebt.","Welkom!
Bevestig alsjeblieft de volgende informatie",Druk op de spatiebalk als deze informatie correct is. Of druk Esc als er fouten zijn.,Je participant ID is: ,De leeftijd gebaseerd op de geboortedatum die je ingevoerd hebt is: ,De leeftijdsgroep van het kind die je ingevoerd hebt is: ,"AMS taak +
Visual Memory Taak","alleen Visual
Memory Taak",Kies 'AMS Taak + Visual Memory Taak' als het de eerste keer is dat het kind de taken doet. Kies 'alleen Visual Memory Taak " als dat de enige taak is die dit kind nog mist.,Je ziet straks een aantal blauwe stippen en gele stippen. Jouw taak is om mij te vertellen welke kleur meer stippen heeft. Je kunt wijzen naar de kant waar meer stippen zijn of zeg gewoon "blauw" of "geel". Experimentator: druk op de  “S” toets voor blauw en op de “L” toets voor geel.,"Goed gedaan!
Druk op q" om verder te gaan."",Welkom!,"Ik ga je een aantal plaatjes(NL)/prentjes(B) laten zien. Daana moet jij naar de plaatjes wijzen die je net gezien hebt.
Klaar?",Denk eraan! Wijs naar het plaatje(NL)/prentje(B) dat je net gezien hebt.,Klaar?,Nu gaan we meer plaatjes(NL)/prentjes(B) bekijken. Laten we oefenen!,Denk eraan! Wijs naar de plaatjes(NL)/prentjes(B) die je net gezien hebt.,Dank je wel!,"Denk eraan!
Jouw taak is om mij te vertellen welke kleur meer stippen heeft. Je kunt naar de kant wijzen die meer stippen heeft of je kunt alleen blauw" of "geel" zeggen."","Ja, dat is goed! Er zijn meer blauwe stippen.","Uh oh, dat is niet goed! Kijk, het maakt niet uit hoe ver de stippen uit elkaar liggen of hoe groot ze zijn, er zijn meer stippen aan deze kant.","Ja, dat is goed! Er zijn meer gele stippen.",,Age5_test12_rect.png,5,,l,l,12,2,,,0,equated,0,0,right,0,6000,12000,0,1,0,,,,20,40,20,40,193130,207780,6000,12000,94,49,19,19,1219,2428,200,183,0.031067,0.057755,283.528736986479,283.528736986479,equated_0_0,3,b2,30.0,0,0,0,0,,,,,,,,,,,,,,,,,,,,,0,11,11,1,,,,,,,,,,,,,,,,,,,,,,,,,,,,,,583.6235107001849,583.6235107001849,583.6235107001849,space,3.0117486999370158,587.50535150012,587.50535150012,588.6556381001137,589.5048697001766,1,l,1,4.2336546999868006,,,,,,,,,,,,,,,,,,,,,,,mn031,29,4,2020,5,KULeuven,Dutch,no,2025-05-05_09h31.50.172,manynumbers_ams_visualmemory_v2025.0301B,2022.2.5,60.8088673351991,
5,dutch,Arial,De ParticipantID box is leeg.,De leeftijd gebaseerd op geboortedatum en de leeftijdsgroep matchen niet met elkaar.,Druk op de spatiebalk en voer de informatie opnieuw in.,Druk a.u.b. op de spatiebalk.,Wijs naar de kant waar meer stippen zijn.,Kijk naar dit plaatje(NL)/prentje(B).,Wijs naar het plaatje(NL)/prentje(B) dat je net gezien hebt.,Kijk naar deze plaatjes(NL)/prentjes(B).,Wijs naar de plaatjes(NL)/prentjes(B)die je net gezien hebt.,"Nu gaan we er nog wat meer doen, maar ik zeg nu niet meer of je het goed of fout hebt.",Dat is juist. Dit is het plaatje(NL)/prentje(B) dat je hebt gezien.,Dat is goed. Dit zijn de plaatjes(NL)/prentjes(B) die je gezien hebt.,"Oei, dit is het plaatje(NL)/prentje(B) dat je hebt gezien.","Uh Oh, dit zijn de plaatjes(NL)/prentjes(B) die je gezien hebt.","Welkom!
Bevestig alsjeblieft de volgende informatie",Druk op de spatiebalk als deze informatie correct is. Of druk Esc als er fouten zijn.,Je participant ID is: ,De leeftijd gebaseerd op de geboortedatum die je ingevoerd hebt is: ,De leeftijdsgroep van het kind die je ingevoerd hebt is: ,"AMS taak +
Visual Memory Taak","alleen Visual
Memory Taak",Kies 'AMS Taak + Visual Memory Taak' als het de eerste keer is dat het kind de taken doet. Kies 'alleen Visual Memory Taak " als dat de enige taak is die dit kind nog mist.,Je ziet straks een aantal blauwe stippen en gele stippen. Jouw taak is om mij te vertellen welke kleur meer stippen heeft. Je kunt wijzen naar de kant waar meer stippen zijn of zeg gewoon "blauw" of "geel". Experimentator: druk op de  “S” toets voor blauw en op de “L” toets voor geel.,"Goed gedaan!
Druk op q" om verder te gaan."",Welkom!,"Ik ga je een aantal plaatjes(NL)/prentjes(B) laten zien. Daana moet jij naar de plaatjes wijzen die je net gezien hebt.
Klaar?",Denk eraan! Wijs naar het plaatje(NL)/prentje(B) dat je net gezien hebt.,Klaar?,Nu gaan we meer plaatjes(NL)/prentjes(B) bekijken. Laten we oefenen!,Denk eraan! Wijs naar de plaatjes(NL)/prentjes(B) die je net gezien hebt.,Dank je wel!,"Denk eraan!
Jouw taak is om mij te vertellen welke kleur meer stippen heeft. Je kunt naar de kant wijzen die meer stippen heeft of je kunt alleen blauw" of "geel" zeggen."","Ja, dat is goed! Er zijn meer blauwe stippen.","Uh oh, dat is niet goed! Kijk, het maakt niet uit hoe ver de stippen uit elkaar liggen of hoe groot ze zijn, er zijn meer stippen aan deze kant.","Ja, dat is goed! Er zijn meer gele stippen.",,Age5_test6_rect.png,5,,l,l,6,1.17,,,equated,equated,0,0,right,129437,5700,6600,0,1,0,,,,19,22,19,22,129480,129450,5700,6600,62,64,19,19,1150,1337,142,159,0.044022,0.050984,283.528736986479,283.528736986479,equated_0_0,3,b2,3_equated,0,0,0,0,,,,,,,,,,,,,,,,,,,,,0,12,12,5,,,,,,,,,,,,,,,,,,,,,,,,,,,,,,591.7907143000048,591.7907143000048,591.7907143000048,space,0.9928180000279099,593.6205647001043,593.6205647001043,594.8035243002232,595.6360260001384,0,s,0,19.084975000005215,,,,,,,,,,,,,,,,,,,,,,,mn031,29,4,2020,5,KULeuven,Dutch,no,2025-05-05_09h31.50.172,manynumbers_ams_visualmemory_v2025.0301B,2022.2.5,60.8088673351991,
5,dutch,Arial,De ParticipantID box is leeg.,De leeftijd gebaseerd op geboortedatum en de leeftijdsgroep matchen niet met elkaar.,Druk op de spatiebalk en voer de informatie opnieuw in.,Druk a.u.b. op de spatiebalk.,Wijs naar de kant waar meer stippen zijn.,Kijk naar dit plaatje(NL)/prentje(B).,Wijs naar het plaatje(NL)/prentje(B) dat je net gezien hebt.,Kijk naar deze plaatjes(NL)/prentjes(B).,Wijs naar de plaatjes(NL)/prentjes(B)die je net gezien hebt.,"Nu gaan we er nog wat meer doen, maar ik zeg nu niet meer of je het goed of fout hebt.",Dat is juist. Dit is het plaatje(NL)/prentje(B) dat je hebt gezien.,Dat is goed. Dit zijn de plaatjes(NL)/prentjes(B) die je gezien hebt.,"Oei, dit is het plaatje(NL)/prentje(B) dat je hebt gezien.","Uh Oh, dit zijn de plaatjes(NL)/prentjes(B) die je gezien hebt.","Welkom!
Bevestig alsjeblieft de volgende informatie",Druk op de spatiebalk als deze informatie correct is. Of druk Esc als er fouten zijn.,Je participant ID is: ,De leeftijd gebaseerd op de geboortedatum die je ingevoerd hebt is: ,De leeftijdsgroep van het kind die je ingevoerd hebt is: ,"AMS taak +
Visual Memory Taak","alleen Visual
Memory Taak",Kies 'AMS Taak + Visual Memory Taak' als het de eerste keer is dat het kind de taken doet. Kies 'alleen Visual Memory Taak " als dat de enige taak is die dit kind nog mist.,Je ziet straks een aantal blauwe stippen en gele stippen. Jouw taak is om mij te vertellen welke kleur meer stippen heeft. Je kunt wijzen naar de kant waar meer stippen zijn of zeg gewoon "blauw" of "geel". Experimentator: druk op de  “S” toets voor blauw en op de “L” toets voor geel.,"Goed gedaan!
Druk op q" om verder te gaan."",Welkom!,"Ik ga je een aantal plaatjes(NL)/prentjes(B) laten zien. Daana moet jij naar de plaatjes wijzen die je net gezien hebt.
Klaar?",Denk eraan! Wijs naar het plaatje(NL)/prentje(B) dat je net gezien hebt.,Klaar?,Nu gaan we meer plaatjes(NL)/prentjes(B) bekijken. Laten we oefenen!,Denk eraan! Wijs naar de plaatjes(NL)/prentjes(B) die je net gezien hebt.,Dank je wel!,"Denk eraan!
Jouw taak is om mij te vertellen welke kleur meer stippen heeft. Je kunt naar de kant wijzen die meer stippen heeft of je kunt alleen blauw" of "geel" zeggen."","Ja, dat is goed! Er zijn meer blauwe stippen.","Uh oh, dat is niet goed! Kijk, het maakt niet uit hoe ver de stippen uit elkaar liggen of hoe groot ze zijn, er zijn meer stippen aan deze kant.","Ja, dat is goed! Er zijn meer gele stippen.",,Age5_test27_rect.png,5,,l,l,27,2,,,equated,0,equated,0,right,47530,6926,6926,0,1,0,,,,17,34,17,34,47513,47525,6926,6926,29,21,22,16,1196,1703,83,83,0.14577,0.14573,380.132711084365,201.061929829747,0_equated_0,2,b2,2_equated,0,0,0,0,,,,,,,,,,,,,,,,,,,,,0,13,13,4,,,,,,,,,,,,,,,,,,,,,,,,,,,,,,612.7300863000564,612.7300863000564,612.7300863000564,space,3.250754199922085,616.8290337000508,616.8290337000508,618.0121261000168,618.8453283000272,1,l,1,4.474594100145623,,,,,,,,,,,,,,,,,,,,,,,mn031,29,4,2020,5,KULeuven,Dutch,no,2025-05-05_09h31.50.172,manynumbers_ams_visualmemory_v2025.0301B,2022.2.5,60.8088673351991,
5,dutch,Arial,De ParticipantID box is leeg.,De leeftijd gebaseerd op geboortedatum en de leeftijdsgroep matchen niet met elkaar.,Druk op de spatiebalk en voer de informatie opnieuw in.,Druk a.u.b. op de spatiebalk.,Wijs naar de kant waar meer stippen zijn.,Kijk naar dit plaatje(NL)/prentje(B).,Wijs naar het plaatje(NL)/prentje(B) dat je net gezien hebt.,Kijk naar deze plaatjes(NL)/prentjes(B).,Wijs naar de plaatjes(NL)/prentjes(B)die je net gezien hebt.,"Nu gaan we er nog wat meer doen, maar ik zeg nu niet meer of je het goed of fout hebt.",Dat is juist. Dit is het plaatje(NL)/prentje(B) dat je hebt gezien.,Dat is goed. Dit zijn de plaatjes(NL)/prentjes(B) die je gezien hebt.,"Oei, dit is het plaatje(NL)/prentje(B) dat je hebt gezien.","Uh Oh, dit zijn de plaatjes(NL)/prentjes(B) die je gezien hebt.","Welkom!
Bevestig alsjeblieft de volgende informatie",Druk op de spatiebalk als deze informatie correct is. Of druk Esc als er fouten zijn.,Je participant ID is: ,De leeftijd gebaseerd op de geboortedatum die je ingevoerd hebt is: ,De leeftijdsgroep van het kind die je ingevoerd hebt is: ,"AMS taak +
Visual Memory Taak","alleen Visual
Memory Taak",Kies 'AMS Taak + Visual Memory Taak' als het de eerste keer is dat het kind de taken doet. Kies 'alleen Visual Memory Taak " als dat de enige taak is die dit kind nog mist.,Je ziet straks een aantal blauwe stippen en gele stippen. Jouw taak is om mij te vertellen welke kleur meer stippen heeft. Je kunt wijzen naar de kant waar meer stippen zijn of zeg gewoon "blauw" of "geel". Experimentator: druk op de  “S” toets voor blauw en op de “L” toets voor geel.,"Goed gedaan!
Druk op q" om verder te gaan."",Welkom!,"Ik ga je een aantal plaatjes(NL)/prentjes(B) laten zien. Daana moet jij naar de plaatjes wijzen die je net gezien hebt.
Klaar?",Denk eraan! Wijs naar het plaatje(NL)/prentje(B) dat je net gezien hebt.,Klaar?,Nu gaan we meer plaatjes(NL)/prentjes(B) bekijken. Laten we oefenen!,Denk eraan! Wijs naar de plaatjes(NL)/prentjes(B) die je net gezien hebt.,Dank je wel!,"Denk eraan!
Jouw taak is om mij te vertellen welke kleur meer stippen heeft. Je kunt naar de kant wijzen die meer stippen heeft of je kunt alleen blauw" of "geel" zeggen."","Ja, dat is goed! Er zijn meer blauwe stippen.","Uh oh, dat is niet goed! Kijk, het maakt niet uit hoe ver de stippen uit elkaar liggen of hoe groot ze zijn, er zijn meer stippen aan deze kant.","Ja, dat is goed! Er zijn meer gele stippen.",,Age5_test19_rect.png,5,,l,l,19,1.25,,,equated,0,equated,0,right,88071,4310,4310,0,1,0,,,,24,30,24,30,88034,88061,4310,4310,44,42,15,13,1129,1261,119,110,0.048958,0.048943,176.714586764426,132.732289614169,0_equated_0,2,b2,2_equated,0,0,0,0,,,,,,,,,,,,,,,,,,,,,0,14,14,3,,,,,,,,,,,,,,,,,,,,,,,,,,,,,,621.3268488000613,621.3268488000613,621.3268488000613,space,26.414927799953148,648.6013041001279,648.6013041001279,649.7678598000202,650.6007368999999,0,s,0,35.36415549996309,,,,,,,,,,,,,,,,,,,,,,,mn031,29,4,2020,5,KULeuven,Dutch,no,2025-05-05_09h31.50.172,manynumbers_ams_visualmemory_v2025.0301B,2022.2.5,60.8088673351991,
5,dutch,Arial,De ParticipantID box is leeg.,De leeftijd gebaseerd op geboortedatum en de leeftijdsgroep matchen niet met elkaar.,Druk op de spatiebalk en voer de informatie opnieuw in.,Druk a.u.b. op de spatiebalk.,Wijs naar de kant waar meer stippen zijn.,Kijk naar dit plaatje(NL)/prentje(B).,Wijs naar het plaatje(NL)/prentje(B) dat je net gezien hebt.,Kijk naar deze plaatjes(NL)/prentjes(B).,Wijs naar de plaatjes(NL)/prentjes(B)die je net gezien hebt.,"Nu gaan we er nog wat meer doen, maar ik zeg nu niet meer of je het goed of fout hebt.",Dat is juist. Dit is het plaatje(NL)/prentje(B) dat je hebt gezien.,Dat is goed. Dit zijn de plaatjes(NL)/prentjes(B) die je gezien hebt.,"Oei, dit is het plaatje(NL)/prentje(B) dat je hebt gezien.","Uh Oh, dit zijn de plaatjes(NL)/prentjes(B) die je gezien hebt.","Welkom!
Bevestig alsjeblieft de volgende informatie",Druk op de spatiebalk als deze informatie correct is. Of druk Esc als er fouten zijn.,Je participant ID is: ,De leeftijd gebaseerd op de geboortedatum die je ingevoerd hebt is: ,De leeftijdsgroep van het kind die je ingevoerd hebt is: ,"AMS taak +
Visual Memory Taak","alleen Visual
Memory Taak",Kies 'AMS Taak + Visual Memory Taak' als het de eerste keer is dat het kind de taken doet. Kies 'alleen Visual Memory Taak " als dat de enige taak is die dit kind nog mist.,Je ziet straks een aantal blauwe stippen en gele stippen. Jouw taak is om mij te vertellen welke kleur meer stippen heeft. Je kunt wijzen naar de kant waar meer stippen zijn of zeg gewoon "blauw" of "geel". Experimentator: druk op de  “S” toets voor blauw en op de “L” toets voor geel.,"Goed gedaan!
Druk op q" om verder te gaan."",Welkom!,"Ik ga je een aantal plaatjes(NL)/prentjes(B) laten zien. Daana moet jij naar de plaatjes wijzen die je net gezien hebt.
Klaar?",Denk eraan! Wijs naar het plaatje(NL)/prentje(B) dat je net gezien hebt.,Klaar?,Nu gaan we meer plaatjes(NL)/prentjes(B) bekijken. Laten we oefenen!,Denk eraan! Wijs naar de plaatjes(NL)/prentjes(B) die je net gezien hebt.,Dank je wel!,"Denk eraan!
Jouw taak is om mij te vertellen welke kleur meer stippen heeft. Je kunt naar de kant wijzen die meer stippen heeft of je kunt alleen blauw" of "geel" zeggen."","Ja, dat is goed! Er zijn meer blauwe stippen.","Uh oh, dat is niet goed! Kijk, het maakt niet uit hoe ver de stippen uit elkaar liggen of hoe groot ze zijn, er zijn meer stippen aan deze kant.","Ja, dat is goed! Er zijn meer gele stippen.",,Age5_test4_rect.png,5,,l,l,4,1.25,,,0,equated,0,0,right,0,9600,12000,0,1,0,,,,32,40,32,40,201890,202450,9600,12000,58,49,19,19,1945,2428,170,174,0.04755,0.059273,283.528736986479,283.528736986479,equated_0_0,3,b2,30.0,0,0,0,0,,,,,,,,,,,,,,,,,,,,,0,15,15,2,,,,,,,,,,,,,,,,,,,,,,,,,,,,,,684.0057586000767,684.0057586000767,684.0057586000767,space,3.2028113999404013,688.1044037002139,688.1044037002139,689.220690100221,690.1043319001328,1,l,1,2.425881400005892,,,,,,,,,,,,,,,,,,,,,,,mn031,29,4,2020,5,KULeuven,Dutch,no,2025-05-05_09h31.50.172,manynumbers_ams_visualmemory_v2025.0301B,2022.2.5,60.8088673351991,
5,dutch,Arial,De ParticipantID box is leeg.,De leeftijd gebaseerd op geboortedatum en de leeftijdsgroep matchen niet met elkaar.,Druk op de spatiebalk en voer de informatie opnieuw in.,Druk a.u.b. op de spatiebalk.,Wijs naar de kant waar meer stippen zijn.,Kijk naar dit plaatje(NL)/prentje(B).,Wijs naar het plaatje(NL)/prentje(B) dat je net gezien hebt.,Kijk naar deze plaatjes(NL)/prentjes(B).,Wijs naar de plaatjes(NL)/prentjes(B)die je net gezien hebt.,"Nu gaan we er nog wat meer doen, maar ik zeg nu niet meer of je het goed of fout hebt.",Dat is juist. Dit is het plaatje(NL)/prentje(B) dat je hebt gezien.,Dat is goed. Dit zijn de plaatjes(NL)/prentjes(B) die je gezien hebt.,"Oei, dit is het plaatje(NL)/prentje(B) dat je hebt gezien.","Uh Oh, dit zijn de plaatjes(NL)/prentjes(B) die je gezien hebt.","Welkom!
Bevestig alsjeblieft de volgende informatie",Druk op de spatiebalk als deze informatie correct is. Of druk Esc als er fouten zijn.,Je participant ID is: ,De leeftijd gebaseerd op de geboortedatum die je ingevoerd hebt is: ,De leeftijdsgroep van het kind die je ingevoerd hebt is: ,"AMS taak +
Visual Memory Taak","alleen Visual
Memory Taak",Kies 'AMS Taak + Visual Memory Taak' als het de eerste keer is dat het kind de taken doet. Kies 'alleen Visual Memory Taak " als dat de enige taak is die dit kind nog mist.,Je ziet straks een aantal blauwe stippen en gele stippen. Jouw taak is om mij te vertellen welke kleur meer stippen heeft. Je kunt wijzen naar de kant waar meer stippen zijn of zeg gewoon "blauw" of "geel". Experimentator: druk op de  “S” toets voor blauw en op de “L” toets voor geel.,"Goed gedaan!
Druk op q" om verder te gaan."",Welkom!,"Ik ga je een aantal plaatjes(NL)/prentjes(B) laten zien. Daana moet jij naar de plaatjes wijzen die je net gezien hebt.
Klaar?",Denk eraan! Wijs naar het plaatje(NL)/prentje(B) dat je net gezien hebt.,Klaar?,Nu gaan we meer plaatjes(NL)/prentjes(B) bekijken. Laten we oefenen!,Denk eraan! Wijs naar de plaatjes(NL)/prentjes(B) die je net gezien hebt.,Dank je wel!,"Denk eraan!
Jouw taak is om mij te vertellen welke kleur meer stippen heeft. Je kunt naar de kant wijzen die meer stippen heeft of je kunt alleen blauw" of "geel" zeggen."","Ja, dat is goed! Er zijn meer blauwe stippen.","Uh oh, dat is niet goed! Kijk, het maakt niet uit hoe ver de stippen uit elkaar liggen of hoe groot ze zijn, er zijn meer stippen aan deze kant.","Ja, dat is goed! Er zijn meer gele stippen.",,Age5_test39_rect.png,5,,l,l,39,1.17,,,0,0,0,equated,right,0,0,0,1917,2,0,,,,27,32,27,32,201690,216520,11209,9515,53,61,23,19,1917,1917,195,200,0.055574,0.043945,415.47562843725,283.528736986479,0_0_equated,1,b1,10.0,0,0,0,0,,,,,,,,,,,,,,,,,,,,,,,,,0,0,0,2,,,,,,,,,,,,,,,,,,,,,,,,,,701.2007313000504,701.2007313000504,701.2007313000504,space,2.336246300023049,704.4320004000328,704.4320004000328,705.5653385000769,706.4314908001106,1,l,1,2.3238333000335842,,,,,,,,,,,,,,,,,space,10.543657999951392,,,,,mn031,29,4,2020,5,KULeuven,Dutch,no,2025-05-05_09h31.50.172,manynumbers_ams_visualmemory_v2025.0301B,2022.2.5,60.8088673351991,
5,dutch,Arial,De ParticipantID box is leeg.,De leeftijd gebaseerd op geboortedatum en de leeftijdsgroep matchen niet met elkaar.,Druk op de spatiebalk en voer de informatie opnieuw in.,Druk a.u.b. op de spatiebalk.,Wijs naar de kant waar meer stippen zijn.,Kijk naar dit plaatje(NL)/prentje(B).,Wijs naar het plaatje(NL)/prentje(B) dat je net gezien hebt.,Kijk naar deze plaatjes(NL)/prentjes(B).,Wijs naar de plaatjes(NL)/prentjes(B)die je net gezien hebt.,"Nu gaan we er nog wat meer doen, maar ik zeg nu niet meer of je het goed of fout hebt.",Dat is juist. Dit is het plaatje(NL)/prentje(B) dat je hebt gezien.,Dat is goed. Dit zijn de plaatjes(NL)/prentjes(B) die je gezien hebt.,"Oei, dit is het plaatje(NL)/prentje(B) dat je hebt gezien.","Uh Oh, dit zijn de plaatjes(NL)/prentjes(B) die je gezien hebt.","Welkom!
Bevestig alsjeblieft de volgende informatie",Druk op de spatiebalk als deze informatie correct is. Of druk Esc als er fouten zijn.,Je participant ID is: ,De leeftijd gebaseerd op de geboortedatum die je ingevoerd hebt is: ,De leeftijdsgroep van het kind die je ingevoerd hebt is: ,"AMS taak +
Visual Memory Taak","alleen Visual
Memory Taak",Kies 'AMS Taak + Visual Memory Taak' als het de eerste keer is dat het kind de taken doet. Kies 'alleen Visual Memory Taak " als dat de enige taak is die dit kind nog mist.,Je ziet straks een aantal blauwe stippen en gele stippen. Jouw taak is om mij te vertellen welke kleur meer stippen heeft. Je kunt wijzen naar de kant waar meer stippen zijn of zeg gewoon "blauw" of "geel". Experimentator: druk op de  “S” toets voor blauw en op de “L” toets voor geel.,"Goed gedaan!
Druk op q" om verder te gaan."",Welkom!,"Ik ga je een aantal plaatjes(NL)/prentjes(B) laten zien. Daana moet jij naar de plaatjes wijzen die je net gezien hebt.
Klaar?",Denk eraan! Wijs naar het plaatje(NL)/prentje(B) dat je net gezien hebt.,Klaar?,Nu gaan we meer plaatjes(NL)/prentjes(B) bekijken. Laten we oefenen!,Denk eraan! Wijs naar de plaatjes(NL)/prentjes(B) die je net gezien hebt.,Dank je wel!,"Denk eraan!
Jouw taak is om mij te vertellen welke kleur meer stippen heeft. Je kunt naar de kant wijzen die meer stippen heeft of je kunt alleen blauw" of "geel" zeggen."","Ja, dat is goed! Er zijn meer blauwe stippen.","Uh oh, dat is niet goed! Kijk, het maakt niet uit hoe ver de stippen uit elkaar liggen of hoe groot ze zijn, er zijn meer stippen aan deze kant.","Ja, dat is goed! Er zijn meer gele stippen.",,Age5_test26_rect.png,5,,a,s,26,2,,,0,0,equated,0,left,0,3002,3002,0,1,1,,,,13,26,26,13,169480,165210,3002,3002,69,95,12,17,979,693,158,192,0.017713,0.018171,113.097335529233,226.980069221863,0_equated_0,2,b1,20.0,0,0,0,0,,,,,,,,,,,,,,,,,,,,,,,,,0,1,1,13,,,,,,,,,,,,,,,,,,,,,,,,,,706.7807057001628,706.7807057001628,706.7807057001628,space,0.676056900061667,708.3816495002247,708.3816495002247,709.4811326002236,710.3974483001512,0,s,1,2.2883564999792725,,,,,,,,,,,,,,,,,,,,,,,mn031,29,4,2020,5,KULeuven,Dutch,no,2025-05-05_09h31.50.172,manynumbers_ams_visualmemory_v2025.0301B,2022.2.5,60.8088673351991,
5,dutch,Arial,De ParticipantID box is leeg.,De leeftijd gebaseerd op geboortedatum en de leeftijdsgroep matchen niet met elkaar.,Druk op de spatiebalk en voer de informatie opnieuw in.,Druk a.u.b. op de spatiebalk.,Wijs naar de kant waar meer stippen zijn.,Kijk naar dit plaatje(NL)/prentje(B).,Wijs naar het plaatje(NL)/prentje(B) dat je net gezien hebt.,Kijk naar deze plaatjes(NL)/prentjes(B).,Wijs naar de plaatjes(NL)/prentjes(B)die je net gezien hebt.,"Nu gaan we er nog wat meer doen, maar ik zeg nu niet meer of je het goed of fout hebt.",Dat is juist. Dit is het plaatje(NL)/prentje(B) dat je hebt gezien.,Dat is goed. Dit zijn de plaatjes(NL)/prentjes(B) die je gezien hebt.,"Oei, dit is het plaatje(NL)/prentje(B) dat je hebt gezien.","Uh Oh, dit zijn de plaatjes(NL)/prentjes(B) die je gezien hebt.","Welkom!
Bevestig alsjeblieft de volgende informatie",Druk op de spatiebalk als deze informatie correct is. Of druk Esc als er fouten zijn.,Je participant ID is: ,De leeftijd gebaseerd op de geboortedatum die je ingevoerd hebt is: ,De leeftijdsgroep van het kind die je ingevoerd hebt is: ,"AMS taak +
Visual Memory Taak","alleen Visual
Memory Taak",Kies 'AMS Taak + Visual Memory Taak' als het de eerste keer is dat het kind de taken doet. Kies 'alleen Visual Memory Taak " als dat de enige taak is die dit kind nog mist.,Je ziet straks een aantal blauwe stippen en gele stippen. Jouw taak is om mij te vertellen welke kleur meer stippen heeft. Je kunt wijzen naar de kant waar meer stippen zijn of zeg gewoon "blauw" of "geel". Experimentator: druk op de  “S” toets voor blauw en op de “L” toets voor geel.,"Goed gedaan!
Druk op q" om verder te gaan."",Welkom!,"Ik ga je een aantal plaatjes(NL)/prentjes(B) laten zien. Daana moet jij naar de plaatjes wijzen die je net gezien hebt.
Klaar?",Denk eraan! Wijs naar het plaatje(NL)/prentje(B) dat je net gezien hebt.,Klaar?,Nu gaan we meer plaatjes(NL)/prentjes(B) bekijken. Laten we oefenen!,Denk eraan! Wijs naar de plaatjes(NL)/prentjes(B) die je net gezien hebt.,Dank je wel!,"Denk eraan!
Jouw taak is om mij te vertellen welke kleur meer stippen heeft. Je kunt naar de kant wijzen die meer stippen heeft of je kunt alleen blauw" of "geel" zeggen."","Ja, dat is goed! Er zijn meer blauwe stippen.","Uh oh, dat is niet goed! Kijk, het maakt niet uit hoe ver de stippen uit elkaar liggen of hoe groot ze zijn, er zijn meer stippen aan deze kant.","Ja, dat is goed! Er zijn meer gele stippen.",,Age5_test46_rect.png,5,,a,s,46,1.5,,,equated,0,0,equated,left,116921,0,0,1895,2,1,,,,14,21,21,14,116980,116930,14014,21122,62,47,29,43,1895,1895,126,126,0.1198,0.18064,660.519855417254,1452.20120412188,0_0_equated,1,b1,1_equated,0,0,0,0,,,,,,,,,,,,,,,,,,,,,,,,,0,2,2,11,,,,,,,,,,,,,,,,,,,,,,,,,,710.6964480001479,710.6964480001479,710.6964480001479,space,0.5046781001146883,712.1293810000643,712.1293810000643,713.2129694002215,714.1286483001895,1,l,0,2.4809127000626177,,,,,,,,,,,,,,,,,,,,,,,mn031,29,4,2020,5,KULeuven,Dutch,no,2025-05-05_09h31.50.172,manynumbers_ams_visualmemory_v2025.0301B,2022.2.5,60.8088673351991,
5,dutch,Arial,De ParticipantID box is leeg.,De leeftijd gebaseerd op geboortedatum en de leeftijdsgroep matchen niet met elkaar.,Druk op de spatiebalk en voer de informatie opnieuw in.,Druk a.u.b. op de spatiebalk.,Wijs naar de kant waar meer stippen zijn.,Kijk naar dit plaatje(NL)/prentje(B).,Wijs naar het plaatje(NL)/prentje(B) dat je net gezien hebt.,Kijk naar deze plaatjes(NL)/prentjes(B).,Wijs naar de plaatjes(NL)/prentjes(B)die je net gezien hebt.,"Nu gaan we er nog wat meer doen, maar ik zeg nu niet meer of je het goed of fout hebt.",Dat is juist. Dit is het plaatje(NL)/prentje(B) dat je hebt gezien.,Dat is goed. Dit zijn de plaatjes(NL)/prentjes(B) die je gezien hebt.,"Oei, dit is het plaatje(NL)/prentje(B) dat je hebt gezien.","Uh Oh, dit zijn de plaatjes(NL)/prentjes(B) die je gezien hebt.","Welkom!
Bevestig alsjeblieft de volgende informatie",Druk op de spatiebalk als deze informatie correct is. Of druk Esc als er fouten zijn.,Je participant ID is: ,De leeftijd gebaseerd op de geboortedatum die je ingevoerd hebt is: ,De leeftijdsgroep van het kind die je ingevoerd hebt is: ,"AMS taak +
Visual Memory Taak","alleen Visual
Memory Taak",Kies 'AMS Taak + Visual Memory Taak' als het de eerste keer is dat het kind de taken doet. Kies 'alleen Visual Memory Taak " als dat de enige taak is die dit kind nog mist.,Je ziet straks een aantal blauwe stippen en gele stippen. Jouw taak is om mij te vertellen welke kleur meer stippen heeft. Je kunt wijzen naar de kant waar meer stippen zijn of zeg gewoon "blauw" of "geel". Experimentator: druk op de  “S” toets voor blauw en op de “L” toets voor geel.,"Goed gedaan!
Druk op q" om verder te gaan."",Welkom!,"Ik ga je een aantal plaatjes(NL)/prentjes(B) laten zien. Daana moet jij naar de plaatjes wijzen die je net gezien hebt.
Klaar?",Denk eraan! Wijs naar het plaatje(NL)/prentje(B) dat je net gezien hebt.,Klaar?,Nu gaan we meer plaatjes(NL)/prentjes(B) bekijken. Laten we oefenen!,Denk eraan! Wijs naar de plaatjes(NL)/prentjes(B) die je net gezien hebt.,Dank je wel!,"Denk eraan!
Jouw taak is om mij te vertellen welke kleur meer stippen heeft. Je kunt naar de kant wijzen die meer stippen heeft of je kunt alleen blauw" of "geel" zeggen."","Ja, dat is goed! Er zijn meer blauwe stippen.","Uh oh, dat is niet goed! Kijk, het maakt niet uit hoe ver de stippen uit elkaar liggen of hoe groot ze zijn, er zijn meer stippen aan deze kant.","Ja, dat is goed! Er zijn meer gele stippen.",,Age5_test14_rect.png,5,,l,l,14,1.5,,,equated,equated,0,0,right,150438,4200,6300,0,1,0,,,,14,21,14,21,150460,150390,4200,6300,104,68,19,19,844,1272,152,147,0.027913,0.041891,283.528736986479,283.528736986479,equated_0_0,3,b1,3_equated,0,0,0,0,,,,,,,,,,,,,,,,,,,,,,,,,0,3,3,5,,,,,,,,,,,,,,,,,,,,,,,,,,714.6791256000288,714.6791256000288,714.6791256000288,space,0.37318870006129146,715.9124588000122,715.9124588000122,717.0611011001747,717.9274603000376,0,s,0,2.972448900109157,,,,,,,,,,,,,,,,,,,,,,,mn031,29,4,2020,5,KULeuven,Dutch,no,2025-05-05_09h31.50.172,manynumbers_ams_visualmemory_v2025.0301B,2022.2.5,60.8088673351991,
5,dutch,Arial,De ParticipantID box is leeg.,De leeftijd gebaseerd op geboortedatum en de leeftijdsgroep matchen niet met elkaar.,Druk op de spatiebalk en voer de informatie opnieuw in.,Druk a.u.b. op de spatiebalk.,Wijs naar de kant waar meer stippen zijn.,Kijk naar dit plaatje(NL)/prentje(B).,Wijs naar het plaatje(NL)/prentje(B) dat je net gezien hebt.,Kijk naar deze plaatjes(NL)/prentjes(B).,Wijs naar de plaatjes(NL)/prentjes(B)die je net gezien hebt.,"Nu gaan we er nog wat meer doen, maar ik zeg nu niet meer of je het goed of fout hebt.",Dat is juist. Dit is het plaatje(NL)/prentje(B) dat je hebt gezien.,Dat is goed. Dit zijn de plaatjes(NL)/prentjes(B) die je gezien hebt.,"Oei, dit is het plaatje(NL)/prentje(B) dat je hebt gezien.","Uh Oh, dit zijn de plaatjes(NL)/prentjes(B) die je gezien hebt.","Welkom!
Bevestig alsjeblieft de volgende informatie",Druk op de spatiebalk als deze informatie correct is. Of druk Esc als er fouten zijn.,Je participant ID is: ,De leeftijd gebaseerd op de geboortedatum die je ingevoerd hebt is: ,De leeftijdsgroep van het kind die je ingevoerd hebt is: ,"AMS taak +
Visual Memory Taak","alleen Visual
Memory Taak",Kies 'AMS Taak + Visual Memory Taak' als het de eerste keer is dat het kind de taken doet. Kies 'alleen Visual Memory Taak " als dat de enige taak is die dit kind nog mist.,Je ziet straks een aantal blauwe stippen en gele stippen. Jouw taak is om mij te vertellen welke kleur meer stippen heeft. Je kunt wijzen naar de kant waar meer stippen zijn of zeg gewoon "blauw" of "geel". Experimentator: druk op de  “S” toets voor blauw en op de “L” toets voor geel.,"Goed gedaan!
Druk op q" om verder te gaan."",Welkom!,"Ik ga je een aantal plaatjes(NL)/prentjes(B) laten zien. Daana moet jij naar de plaatjes wijzen die je net gezien hebt.
Klaar?",Denk eraan! Wijs naar het plaatje(NL)/prentje(B) dat je net gezien hebt.,Klaar?,Nu gaan we meer plaatjes(NL)/prentjes(B) bekijken. Laten we oefenen!,Denk eraan! Wijs naar de plaatjes(NL)/prentjes(B) die je net gezien hebt.,Dank je wel!,"Denk eraan!
Jouw taak is om mij te vertellen welke kleur meer stippen heeft. Je kunt naar de kant wijzen die meer stippen heeft of je kunt alleen blauw" of "geel" zeggen."","Ja, dat is goed! Er zijn meer blauwe stippen.","Uh oh, dat is niet goed! Kijk, het maakt niet uit hoe ver de stippen uit elkaar liggen of hoe groot ze zijn, er zijn meer stippen aan deze kant.","Ja, dat is goed! Er zijn meer gele stippen.",,Age5_test20_rect.png,5,,a,s,20,1.25,,,equated,0,equated,0,left,75061,3292,3292,0,1,1,,,,32,40,40,32,75025,75027,3292,3292,31,35,10,11,1273,1133,100,105,0.043879,0.043878,78.5398163397448,95.0331777710912,0_equated_0,2,b1,2_equated,0,0,0,0,,,,,,,,,,,,,,,,,,,,,,,,,0,4,4,10,,,,,,,,,,,,,,,,,,,,,,,,,,718.9104026001878,718.9104026001878,718.9104026001878,space,0.39184960001148283,720.1776771000586,720.1776771000586,721.3263018000871,722.1929624001496,1,l,0,3.099853199906647,,,,,,,,,,,,,,,,,,,,,,,mn031,29,4,2020,5,KULeuven,Dutch,no,2025-05-05_09h31.50.172,manynumbers_ams_visualmemory_v2025.0301B,2022.2.5,60.8088673351991,
5,dutch,Arial,De ParticipantID box is leeg.,De leeftijd gebaseerd op geboortedatum en de leeftijdsgroep matchen niet met elkaar.,Druk op de spatiebalk en voer de informatie opnieuw in.,Druk a.u.b. op de spatiebalk.,Wijs naar de kant waar meer stippen zijn.,Kijk naar dit plaatje(NL)/prentje(B).,Wijs naar het plaatje(NL)/prentje(B) dat je net gezien hebt.,Kijk naar deze plaatjes(NL)/prentjes(B).,Wijs naar de plaatjes(NL)/prentjes(B)die je net gezien hebt.,"Nu gaan we er nog wat meer doen, maar ik zeg nu niet meer of je het goed of fout hebt.",Dat is juist. Dit is het plaatje(NL)/prentje(B) dat je hebt gezien.,Dat is goed. Dit zijn de plaatjes(NL)/prentjes(B) die je gezien hebt.,"Oei, dit is het plaatje(NL)/prentje(B) dat je hebt gezien.","Uh Oh, dit zijn de plaatjes(NL)/prentjes(B) die je gezien hebt.","Welkom!
Bevestig alsjeblieft de volgende informatie",Druk op de spatiebalk als deze informatie correct is. Of druk Esc als er fouten zijn.,Je participant ID is: ,De leeftijd gebaseerd op de geboortedatum die je ingevoerd hebt is: ,De leeftijdsgroep van het kind die je ingevoerd hebt is: ,"AMS taak +
Visual Memory Taak","alleen Visual
Memory Taak",Kies 'AMS Taak + Visual Memory Taak' als het de eerste keer is dat het kind de taken doet. Kies 'alleen Visual Memory Taak " als dat de enige taak is die dit kind nog mist.,Je ziet straks een aantal blauwe stippen en gele stippen. Jouw taak is om mij te vertellen welke kleur meer stippen heeft. Je kunt wijzen naar de kant waar meer stippen zijn of zeg gewoon "blauw" of "geel". Experimentator: druk op de  “S” toets voor blauw en op de “L” toets voor geel.,"Goed gedaan!
Druk op q" om verder te gaan."",Welkom!,"Ik ga je een aantal plaatjes(NL)/prentjes(B) laten zien. Daana moet jij naar de plaatjes wijzen die je net gezien hebt.
Klaar?",Denk eraan! Wijs naar het plaatje(NL)/prentje(B) dat je net gezien hebt.,Klaar?,Nu gaan we meer plaatjes(NL)/prentjes(B) bekijken. Laten we oefenen!,Denk eraan! Wijs naar de plaatjes(NL)/prentjes(B) die je net gezien hebt.,Dank je wel!,"Denk eraan!
Jouw taak is om mij te vertellen welke kleur meer stippen heeft. Je kunt naar de kant wijzen die meer stippen heeft of je kunt alleen blauw" of "geel" zeggen."","Ja, dat is goed! Er zijn meer blauwe stippen.","Uh oh, dat is niet goed! Kijk, het maakt niet uit hoe ver de stippen uit elkaar liggen of hoe groot ze zijn, er zijn meer stippen aan deze kant.","Ja, dat is goed! Er zijn meer gele stippen.",,Age5_test5_rect.png,5,,a,s,5,1.17,,,equated,equated,0,0,left,127115,3600,4200,0,1,1,,,,12,14,14,12,127090,127130,4200,3600,71,95,19,19,851,727,177,162,0.033048,0.028318,283.528736986479,283.528736986479,equated_0_0,3,b1,3_equated,0,0,0,0,,,,,,,,,,,,,,,,,,,,,,,,,0,5,5,8,,,,,,,,,,,,,,,,,,,,,,,,,,723.3091090000235,723.3091090000235,723.3091090000235,space,0.3555587998125702,724.541970100021,724.541970100021,725.6914030001499,726.5414489000104,0,s,1,2.495886200107634,,,,,,,,,,,,,,,,,,,,,,,mn031,29,4,2020,5,KULeuven,Dutch,no,2025-05-05_09h31.50.172,manynumbers_ams_visualmemory_v2025.0301B,2022.2.5,60.8088673351991,
5,dutch,Arial,De ParticipantID box is leeg.,De leeftijd gebaseerd op geboortedatum en de leeftijdsgroep matchen niet met elkaar.,Druk op de spatiebalk en voer de informatie opnieuw in.,Druk a.u.b. op de spatiebalk.,Wijs naar de kant waar meer stippen zijn.,Kijk naar dit plaatje(NL)/prentje(B).,Wijs naar het plaatje(NL)/prentje(B) dat je net gezien hebt.,Kijk naar deze plaatjes(NL)/prentjes(B).,Wijs naar de plaatjes(NL)/prentjes(B)die je net gezien hebt.,"Nu gaan we er nog wat meer doen, maar ik zeg nu niet meer of je het goed of fout hebt.",Dat is juist. Dit is het plaatje(NL)/prentje(B) dat je hebt gezien.,Dat is goed. Dit zijn de plaatjes(NL)/prentjes(B) die je gezien hebt.,"Oei, dit is het plaatje(NL)/prentje(B) dat je hebt gezien.","Uh Oh, dit zijn de plaatjes(NL)/prentjes(B) die je gezien hebt.","Welkom!
Bevestig alsjeblieft de volgende informatie",Druk op de spatiebalk als deze informatie correct is. Of druk Esc als er fouten zijn.,Je participant ID is: ,De leeftijd gebaseerd op de geboortedatum die je ingevoerd hebt is: ,De leeftijdsgroep van het kind die je ingevoerd hebt is: ,"AMS taak +
Visual Memory Taak","alleen Visual
Memory Taak",Kies 'AMS Taak + Visual Memory Taak' als het de eerste keer is dat het kind de taken doet. Kies 'alleen Visual Memory Taak " als dat de enige taak is die dit kind nog mist.,Je ziet straks een aantal blauwe stippen en gele stippen. Jouw taak is om mij te vertellen welke kleur meer stippen heeft. Je kunt wijzen naar de kant waar meer stippen zijn of zeg gewoon "blauw" of "geel". Experimentator: druk op de  “S” toets voor blauw en op de “L” toets voor geel.,"Goed gedaan!
Druk op q" om verder te gaan."",Welkom!,"Ik ga je een aantal plaatjes(NL)/prentjes(B) laten zien. Daana moet jij naar de plaatjes wijzen die je net gezien hebt.
Klaar?",Denk eraan! Wijs naar het plaatje(NL)/prentje(B) dat je net gezien hebt.,Klaar?,Nu gaan we meer plaatjes(NL)/prentjes(B) bekijken. Laten we oefenen!,Denk eraan! Wijs naar de plaatjes(NL)/prentjes(B) die je net gezien hebt.,Dank je wel!,"Denk eraan!
Jouw taak is om mij te vertellen welke kleur meer stippen heeft. Je kunt naar de kant wijzen die meer stippen heeft of je kunt alleen blauw" of "geel" zeggen."","Ja, dat is goed! Er zijn meer blauwe stippen.","Uh oh, dat is niet goed! Kijk, het maakt niet uit hoe ver de stippen uit elkaar liggen of hoe groot ze zijn, er zijn meer stippen aan deze kant.","Ja, dat is goed! Er zijn meer gele stippen.",,Age5_test18_rect.png,5,,a,s,18,1.25,,,0,0,equated,0,left,0,7667,7667,0,1,1,,,,16,20,20,16,187110,186660,7667,7667,78,94,22,24,1372,1227,194,183,0.040975,0.041074,380.132711084365,452.38934211693,0_equated_0,2,b1,20.0,0,0,0,0,,,,,,,,,,,,,,,,,,,,,,,,,0,6,6,12,,,,,,,,,,,,,,,,,,,,,,,,,,727.0571691000368,727.0571691000368,727.0571691000368,space,0.38784890016540885,728.3570701000281,728.3570701000281,729.4737990000285,730.3563643000089,1,l,0,4.509625700069591,,,,,,,,,,,,,,,,,,,,,,,mn031,29,4,2020,5,KULeuven,Dutch,no,2025-05-05_09h31.50.172,manynumbers_ams_visualmemory_v2025.0301B,2022.2.5,60.8088673351991,
